subid,itemid,trialnum,adjective,noun,article,adj_article,rating,date,timestamp,reactiontime
8774-7baafa3e-9380-4634-b690-85491cd562c1,166,0,battery,honey,NA,NA,1,5/8/2023,18:38:24,2551
8774-7baafa3e-9380-4634-b690-85491cd562c1,166,1,fat,hen,a,a,3,5/8/2023,18:38:26,2184
8774-7baafa3e-9380-4634-b690-85491cd562c1,166,2,castle,puzzle,a,a,3,5/8/2023,18:38:28,1460
8774-7baafa3e-9380-4634-b690-85491cd562c1,166,3,red,hexagon,a,a,3,5/8/2023,18:38:30,1214
8774-7baafa3e-9380-4634-b690-85491cd562c1,166,4,red,dog,a,a,3,5/8/2023,18:38:32,1496
8774-7baafa3e-9380-4634-b690-85491cd562c1,166,5,glazed,window,a,a,3,5/8/2023,18:38:33,1373
8774-7baafa3e-9380-4634-b690-85491cd562c1,166,6,horned,viper,a,a,2,5/8/2023,18:38:37,2891
8774-7baafa3e-9380-4634-b690-85491cd562c1,166,7,round,body,a,a,3,5/8/2023,18:38:39,1405
8774-7baafa3e-9380-4634-b690-85491cd562c1,166,8,coral,reef,a,a,3,5/8/2023,18:38:41,2307
8774-7baafa3e-9380-4634-b690-85491cd562c1,166,9,coke,cast,a,a,2,5/8/2023,18:38:44,2126
8774-7baafa3e-9380-4634-b690-85491cd562c1,166,10,girl,glass,a,a,2,5/8/2023,18:38:47,2628
8774-7baafa3e-9380-4634-b690-85491cd562c1,166,11,pipe,cover,a,a,2,5/8/2023,18:38:49,1617
8774-7baafa3e-9380-4634-b690-85491cd562c1,166,12,elephant,mommy,a,an,2,5/8/2023,18:38:51,1485
8774-7baafa3e-9380-4634-b690-85491cd562c1,166,13,NA,NA,NA,NA,5,5/8/2023,18:38:53,1893
8774-7baafa3e-9380-4634-b690-85491cd562c1,166,14,smiley,cake,a,a,2,5/8/2023,18:39:32,38591
8774-7baafa3e-9380-4634-b690-85491cd562c1,166,15,yellow,slab,a,a,3,5/8/2023,18:39:35,1967
8774-7baafa3e-9380-4634-b690-85491cd562c1,166,16,top,buckle,a,a,3,5/8/2023,18:39:37,1899
8774-7baafa3e-9380-4634-b690-85491cd562c1,166,17,green,suit,a,a,3,5/8/2023,18:39:39,1493
8774-7baafa3e-9380-4634-b690-85491cd562c1,166,18,green,chain,a,a,3,5/8/2023,18:39:41,1895
8774-7baafa3e-9380-4634-b690-85491cd562c1,166,19,purple,scissors,NA,NA,3,5/8/2023,18:39:43,1870
8774-7baafa3e-9380-4634-b690-85491cd562c1,166,20,purple,circle,a,a,3,5/8/2023,18:39:45,1452
8774-7baafa3e-9380-4634-b690-85491cd562c1,166,21,roast,marshmallow,a,a,4,5/8/2023,18:39:48,2620
8774-7baafa3e-9380-4634-b690-85491cd562c1,166,22,apple,mommy,a,an,1,5/8/2023,18:39:51,2588
8774-7baafa3e-9380-4634-b690-85491cd562c1,166,23,daddy,mom,a,a,8,5/8/2023,18:39:54,2225
8774-7baafa3e-9380-4634-b690-85491cd562c1,166,24,cookie,sheet,a,a,3,5/8/2023,18:39:56,1813
8774-7baafa3e-9380-4634-b690-85491cd562c1,166,25,street,corner,a,a,3,5/8/2023,18:39:58,1605
8774-7baafa3e-9380-4634-b690-85491cd562c1,166,26,bath,tile,a,a,3,5/8/2023,18:40:00,1327
8774-7baafa3e-9380-4634-b690-85491cd562c1,166,27,yellow,belt,a,a,3,5/8/2023,18:40:02,1340
8774-7baafa3e-9380-4634-b690-85491cd562c1,166,28,green,horse,a,a,2,5/8/2023,18:40:04,2027
8774-7baafa3e-9380-4634-b690-85491cd562c1,166,29,bed,breakfast,a,a,3,5/8/2023,18:40:07,2061
8774-7baafa3e-9380-4634-b690-85491cd562c1,166,30,woolly,sheep,a,a,3,5/8/2023,18:40:56,49249
8774-7baafa3e-9380-4634-b690-85491cd562c1,166,31,ad,green,NA,NA,3,5/8/2023,18:40:59,2473
8774-7baafa3e-9380-4634-b690-85491cd562c1,166,32,bald,head,a,a,3,5/8/2023,18:41:02,2242
8774-7baafa3e-9380-4634-b690-85491cd562c1,166,33,brown,stick,a,a,3,5/8/2023,18:41:04,1368
8774-7baafa3e-9380-4634-b690-85491cd562c1,166,34,dozen,rig,a,a,8,5/8/2023,18:41:07,2607
8774-7baafa3e-9380-4634-b690-85491cd562c1,166,35,bridge,piece,a,a,3,5/8/2023,18:41:09,1836
8483-5ca010d2-a822-4ff7-a06b-0b8169f2173c,115,0,sandwich,box,a,a,3,5/8/2023,20:19:35,55962
8483-5ca010d2-a822-4ff7-a06b-0b8169f2173c,115,1,giant,fish,a,a,2,5/8/2023,20:19:42,6658
8483-5ca010d2-a822-4ff7-a06b-0b8169f2173c,115,2,colored,ring,a,a,2,5/8/2023,20:19:54,12226
8483-5ca010d2-a822-4ff7-a06b-0b8169f2173c,115,3,silver,wedding,a,a,2,5/8/2023,20:20:00,5509
8483-5ca010d2-a822-4ff7-a06b-0b8169f2173c,115,4,daddy,phone,a,a,1,5/8/2023,20:20:20,19532
8483-5ca010d2-a822-4ff7-a06b-0b8169f2173c,115,5,farm,vehicle,a,a,3,5/8/2023,20:20:29,8317
8483-5ca010d2-a822-4ff7-a06b-0b8169f2173c,115,6,yellow,zucchini,a,a,2,5/8/2023,20:20:57,27941
8483-5ca010d2-a822-4ff7-a06b-0b8169f2173c,115,7,bleeding,crumpet,a,a,1,5/8/2023,20:21:33,35225
8483-5ca010d2-a822-4ff7-a06b-0b8169f2173c,115,8,write,mommy,a,a,8,5/8/2023,20:21:59,26137
8483-5ca010d2-a822-4ff7-a06b-0b8169f2173c,115,9,strawberry,oatmeal,NA,NA,3,5/8/2023,20:22:22,22466
8483-5ca010d2-a822-4ff7-a06b-0b8169f2173c,115,10,NA,NA,NA,NA,5,5/8/2023,20:22:28,4989
8483-5ca010d2-a822-4ff7-a06b-0b8169f2173c,115,11,garlic,powder,NA,NA,3,5/8/2023,20:22:40,11514
8483-5ca010d2-a822-4ff7-a06b-0b8169f2173c,115,12,hot,mark,a,a,2,5/8/2023,20:22:58,18268
8483-5ca010d2-a822-4ff7-a06b-0b8169f2173c,115,13,wooden,train,a,a,3,5/8/2023,20:23:05,6084
8483-5ca010d2-a822-4ff7-a06b-0b8169f2173c,115,14,orange,pumpkin,a,an,4,5/8/2023,20:23:24,18692
8483-5ca010d2-a822-4ff7-a06b-0b8169f2173c,115,15,pumpkin,face,a,a,2,5/8/2023,20:23:33,9202
8483-5ca010d2-a822-4ff7-a06b-0b8169f2173c,115,16,toy,basket,a,a,3,5/8/2023,20:28:02,267989
8483-5ca010d2-a822-4ff7-a06b-0b8169f2173c,115,17,dome,car,a,a,2,5/8/2023,20:28:26,23532
8483-5ca010d2-a822-4ff7-a06b-0b8169f2173c,115,18,limp,sheep,a,a,2,5/8/2023,20:28:37,10805
8483-5ca010d2-a822-4ff7-a06b-0b8169f2173c,115,19,outside,room,a,an,2,5/8/2023,20:28:52,14556
8483-5ca010d2-a822-4ff7-a06b-0b8169f2173c,115,20,earth,worm,a,an,4,5/8/2023,20:29:29,36917
8483-5ca010d2-a822-4ff7-a06b-0b8169f2173c,115,21,scooter,game,a,a,2,5/8/2023,20:29:42,11929
8483-5ca010d2-a822-4ff7-a06b-0b8169f2173c,115,22,fat,body,a,a,3,5/8/2023,20:30:00,17803
8483-5ca010d2-a822-4ff7-a06b-0b8169f2173c,115,23,ear,daddy,a,an,8,5/8/2023,20:30:07,7214
8483-5ca010d2-a822-4ff7-a06b-0b8169f2173c,115,24,bite,mark,a,a,2,5/8/2023,20:30:15,7075
8483-5ca010d2-a822-4ff7-a06b-0b8169f2173c,115,25,snow,tire,a,a,3,5/8/2023,20:30:24,8493
8483-5ca010d2-a822-4ff7-a06b-0b8169f2173c,115,26,red,bag,a,a,3,5/8/2023,20:30:41,16547
8483-5ca010d2-a822-4ff7-a06b-0b8169f2173c,115,27,frog,sleeping,NA,NA,2,5/8/2023,20:30:49,8138
8483-5ca010d2-a822-4ff7-a06b-0b8169f2173c,115,28,bright,light,a,a,3,5/8/2023,20:31:11,21383
8483-5ca010d2-a822-4ff7-a06b-0b8169f2173c,115,29,round,skull,a,a,3,5/8/2023,20:31:33,21731
8483-5ca010d2-a822-4ff7-a06b-0b8169f2173c,115,30,football,game,a,a,3,5/8/2023,20:31:52,17949
8483-5ca010d2-a822-4ff7-a06b-0b8169f2173c,115,31,outside,rocket,a,an,5,5/8/2023,20:32:07,14792
8483-5ca010d2-a822-4ff7-a06b-0b8169f2173c,115,32,navy,stripe,a,a,2,5/8/2023,20:32:20,12757
8483-5ca010d2-a822-4ff7-a06b-0b8169f2173c,115,33,worm,mucus,a,a,2,5/8/2023,20:32:33,12563
8483-5ca010d2-a822-4ff7-a06b-0b8169f2173c,115,34,ear,ring,a,an,2,5/8/2023,20:32:45,11348
8483-5ca010d2-a822-4ff7-a06b-0b8169f2173c,115,35,tiger,mom,a,a,2,5/8/2023,20:33:35,49477
0958-c85d7f31-7983-49f8-a7c5-d5d289adc3fe,30,0,room,door,a,a,3,5/8/2023,16:57:31,3393
0958-c85d7f31-7983-49f8-a7c5-d5d289adc3fe,30,1,hand,mom,a,a,8,5/8/2023,16:57:34,2519
0958-c85d7f31-7983-49f8-a7c5-d5d289adc3fe,30,2,puzzle,piece,a,a,3,5/8/2023,16:57:36,2196
0958-c85d7f31-7983-49f8-a7c5-d5d289adc3fe,30,3,dark,screen,a,a,3,5/8/2023,16:57:39,2007
0958-c85d7f31-7983-49f8-a7c5-d5d289adc3fe,30,4,bear,mask,a,a,3,5/8/2023,16:57:41,2311
0958-c85d7f31-7983-49f8-a7c5-d5d289adc3fe,30,5,blood,test,a,a,2,5/8/2023,16:57:45,3198
0958-c85d7f31-7983-49f8-a7c5-d5d289adc3fe,30,6,orange,necklace,a,an,2,5/8/2023,16:57:48,2173
0958-c85d7f31-7983-49f8-a7c5-d5d289adc3fe,30,7,pee,diaper,a,a,3,5/8/2023,16:57:51,2664
0958-c85d7f31-7983-49f8-a7c5-d5d289adc3fe,30,8,apple,head,a,an,1,5/8/2023,16:57:55,3973
0958-c85d7f31-7983-49f8-a7c5-d5d289adc3fe,30,9,fat,boiling,NA,NA,8,5/8/2023,16:57:58,2934
0958-c85d7f31-7983-49f8-a7c5-d5d289adc3fe,30,10,room,suite,a,a,3,5/8/2023,16:58:01,2415
0958-c85d7f31-7983-49f8-a7c5-d5d289adc3fe,30,11,strawberry,sauce,NA,NA,3,5/8/2023,16:58:03,1775
0958-c85d7f31-7983-49f8-a7c5-d5d289adc3fe,30,12,dictionary,publisher,a,a,2,5/8/2023,16:58:07,3549
0958-c85d7f31-7983-49f8-a7c5-d5d289adc3fe,30,13,giant,sandwich,a,a,3,5/8/2023,16:58:10,1879
0958-c85d7f31-7983-49f8-a7c5-d5d289adc3fe,30,14,riding,toy,a,a,3,5/8/2023,16:58:12,2101
0958-c85d7f31-7983-49f8-a7c5-d5d289adc3fe,30,15,purple,truck,a,a,3,5/8/2023,16:58:15,2014
0958-c85d7f31-7983-49f8-a7c5-d5d289adc3fe,30,16,water,bud,a,a,8,5/8/2023,16:58:17,2471
0958-c85d7f31-7983-49f8-a7c5-d5d289adc3fe,30,17,baby,pool,a,a,2,5/8/2023,16:58:21,2664
0958-c85d7f31-7983-49f8-a7c5-d5d289adc3fe,30,18,kid,one,a,a,8,5/8/2023,16:58:23,2079
0958-c85d7f31-7983-49f8-a7c5-d5d289adc3fe,30,19,green,leaf,a,a,6,5/8/2023,16:58:26,2828
0958-c85d7f31-7983-49f8-a7c5-d5d289adc3fe,30,20,back,side,a,a,2,5/8/2023,16:58:31,4736
0958-c85d7f31-7983-49f8-a7c5-d5d289adc3fe,30,21,NA,NA,NA,NA,5,5/8/2023,16:58:33,1660
0958-c85d7f31-7983-49f8-a7c5-d5d289adc3fe,30,22,wet,shoe,a,a,3,5/8/2023,16:58:36,2605
0958-c85d7f31-7983-49f8-a7c5-d5d289adc3fe,30,23,mommy,honey,NA,NA,1,5/8/2023,16:58:40,2905
0958-c85d7f31-7983-49f8-a7c5-d5d289adc3fe,30,24,person,green,NA,NA,8,5/8/2023,16:58:43,2478
0958-c85d7f31-7983-49f8-a7c5-d5d289adc3fe,30,25,turkey,sty,a,a,1,5/8/2023,16:58:47,3864
0958-c85d7f31-7983-49f8-a7c5-d5d289adc3fe,30,26,person,person,a,a,8,5/8/2023,16:58:49,2021
0958-c85d7f31-7983-49f8-a7c5-d5d289adc3fe,30,27,fridge,magnet,a,a,3,5/8/2023,16:58:52,2293
0958-c85d7f31-7983-49f8-a7c5-d5d289adc3fe,30,28,yellow,costume,a,a,2,5/8/2023,16:58:55,2225
0958-c85d7f31-7983-49f8-a7c5-d5d289adc3fe,30,29,gas,cooker,a,a,3,5/8/2023,16:58:58,3256
0958-c85d7f31-7983-49f8-a7c5-d5d289adc3fe,30,30,mother,alligator,an,a,3,5/8/2023,16:59:01,2005
0958-c85d7f31-7983-49f8-a7c5-d5d289adc3fe,30,31,top,pop,a,a,8,5/8/2023,16:59:04,3287
0958-c85d7f31-7983-49f8-a7c5-d5d289adc3fe,30,32,oval,triangle,a,an,1,5/8/2023,16:59:08,2806
0958-c85d7f31-7983-49f8-a7c5-d5d289adc3fe,30,33,green,tomato,a,a,4,5/8/2023,16:59:10,2329
0958-c85d7f31-7983-49f8-a7c5-d5d289adc3fe,30,34,red,horse,a,a,1,5/8/2023,16:59:13,2097
0958-c85d7f31-7983-49f8-a7c5-d5d289adc3fe,30,35,light,switch,a,a,3,5/8/2023,16:59:15,1848
5768-9f6eb0a3-aa88-4e93-9b4d-1f6558f7e8f6,145,0,dead,ornament,an,a,2,5/8/2023,19:27:09,15770
5768-9f6eb0a3-aa88-4e93-9b4d-1f6558f7e8f6,145,1,pigeon,shit,NA,NA,3,5/8/2023,19:27:15,5762
5768-9f6eb0a3-aa88-4e93-9b4d-1f6558f7e8f6,145,2,apple,slice,a,an,3,5/8/2023,19:27:19,3468
5768-9f6eb0a3-aa88-4e93-9b4d-1f6558f7e8f6,145,3,wet,girl,a,a,3,5/8/2023,19:27:22,2739
5768-9f6eb0a3-aa88-4e93-9b4d-1f6558f7e8f6,145,4,candy,machine,a,a,3,5/8/2023,19:27:26,3692
5768-9f6eb0a3-aa88-4e93-9b4d-1f6558f7e8f6,145,5,weenie,hair,NA,NA,8,5/8/2023,19:27:35,8550
5768-9f6eb0a3-aa88-4e93-9b4d-1f6558f7e8f6,145,6,jam,pot,a,a,3,5/8/2023,19:27:38,2972
5768-9f6eb0a3-aa88-4e93-9b4d-1f6558f7e8f6,145,7,lighting,hallway,a,a,3,5/8/2023,19:27:41,2633
5768-9f6eb0a3-aa88-4e93-9b4d-1f6558f7e8f6,145,8,music,toy,a,a,3,5/8/2023,19:27:45,3177
5768-9f6eb0a3-aa88-4e93-9b4d-1f6558f7e8f6,145,9,kitchen,counter,a,a,3,5/8/2023,19:27:51,5180
5768-9f6eb0a3-aa88-4e93-9b4d-1f6558f7e8f6,145,10,green,slide,a,a,3,5/8/2023,19:27:55,4028
5768-9f6eb0a3-aa88-4e93-9b4d-1f6558f7e8f6,145,11,steam,shovel,a,a,2,5/8/2023,19:28:00,4244
5768-9f6eb0a3-aa88-4e93-9b4d-1f6558f7e8f6,145,12,boy,glass,a,a,3,5/8/2023,19:28:09,8732
5768-9f6eb0a3-aa88-4e93-9b4d-1f6558f7e8f6,145,13,baby,hippo,a,a,3,5/8/2023,19:28:14,5075
5768-9f6eb0a3-aa88-4e93-9b4d-1f6558f7e8f6,145,14,carrot,stick,a,a,3,5/8/2023,19:28:17,2420
5768-9f6eb0a3-aa88-4e93-9b4d-1f6558f7e8f6,145,15,sleeve,shirt,a,a,3,5/8/2023,19:28:22,3933
5768-9f6eb0a3-aa88-4e93-9b4d-1f6558f7e8f6,145,16,key,engine,an,a,8,5/8/2023,19:28:28,6141
5768-9f6eb0a3-aa88-4e93-9b4d-1f6558f7e8f6,145,17,goods,shop,a,a,6,5/8/2023,19:28:35,6077
5768-9f6eb0a3-aa88-4e93-9b4d-1f6558f7e8f6,145,18,file,drawer,a,a,3,5/8/2023,19:28:42,6704
5768-9f6eb0a3-aa88-4e93-9b4d-1f6558f7e8f6,145,19,cat,flap,a,a,2,5/8/2023,19:28:48,6092
5768-9f6eb0a3-aa88-4e93-9b4d-1f6558f7e8f6,145,20,scribble,scribble,a,a,8,5/8/2023,19:28:51,2889
5768-9f6eb0a3-aa88-4e93-9b4d-1f6558f7e8f6,145,21,dirty,daddy,a,a,3,5/8/2023,19:28:55,3502
5768-9f6eb0a3-aa88-4e93-9b4d-1f6558f7e8f6,145,22,solid,smack,a,a,3,5/8/2023,19:29:02,5943
5768-9f6eb0a3-aa88-4e93-9b4d-1f6558f7e8f6,145,23,cook,dinner,a,a,3,5/8/2023,19:29:11,8820
5768-9f6eb0a3-aa88-4e93-9b4d-1f6558f7e8f6,145,24,balloon,streamer,a,a,3,5/8/2023,19:29:18,6929
5768-9f6eb0a3-aa88-4e93-9b4d-1f6558f7e8f6,145,25,foot,length,a,a,3,5/8/2023,19:29:23,4452
5768-9f6eb0a3-aa88-4e93-9b4d-1f6558f7e8f6,145,26,dead,skin,NA,NA,3,5/8/2023,19:29:28,4093
5768-9f6eb0a3-aa88-4e93-9b4d-1f6558f7e8f6,145,27,sidewalk,chalk,NA,NA,3,5/8/2023,19:29:33,4677
5768-9f6eb0a3-aa88-4e93-9b4d-1f6558f7e8f6,145,28,hummingbird,hum,a,a,8,5/8/2023,19:29:36,3308
5768-9f6eb0a3-aa88-4e93-9b4d-1f6558f7e8f6,145,29,nanny,water,NA,NA,8,5/8/2023,19:29:44,6714
5768-9f6eb0a3-aa88-4e93-9b4d-1f6558f7e8f6,145,30,brush,brush,a,a,8,5/8/2023,19:29:46,2354
5768-9f6eb0a3-aa88-4e93-9b4d-1f6558f7e8f6,145,31,fat,bunny,a,a,3,5/8/2023,19:29:50,3588
5768-9f6eb0a3-aa88-4e93-9b4d-1f6558f7e8f6,145,32,apple,tea,NA,NA,3,5/8/2023,19:29:53,2732
5768-9f6eb0a3-aa88-4e93-9b4d-1f6558f7e8f6,145,33,dirty,foot,a,a,3,5/8/2023,19:29:57,2743
5768-9f6eb0a3-aa88-4e93-9b4d-1f6558f7e8f6,145,34,record,run,a,a,2,5/8/2023,19:30:01,3563
5768-9f6eb0a3-aa88-4e93-9b4d-1f6558f7e8f6,145,35,NA,NA,NA,NA,5,5/8/2023,19:30:03,2438
7058-f9d63c6a-7c94-4555-9b05-a9347bed93ec,36,0,seaside,cart,a,a,2,5/8/2023,20:00:16,70874
7058-f9d63c6a-7c94-4555-9b05-a9347bed93ec,36,1,round,globe,a,a,7,5/8/2023,20:00:20,3081
7058-f9d63c6a-7c94-4555-9b05-a9347bed93ec,36,2,purple,onion,an,a,3,5/8/2023,20:00:24,3581
7058-f9d63c6a-7c94-4555-9b05-a9347bed93ec,36,3,red,cookie,a,a,1,5/8/2023,20:00:28,4087
7058-f9d63c6a-7c94-4555-9b05-a9347bed93ec,36,4,school,teacher,a,a,6,5/8/2023,20:00:33,4141
7058-f9d63c6a-7c94-4555-9b05-a9347bed93ec,36,5,dirty,water,NA,NA,3,5/8/2023,20:00:36,2425
7058-f9d63c6a-7c94-4555-9b05-a9347bed93ec,36,6,curling,brush,a,a,2,5/8/2023,20:00:39,2845
7058-f9d63c6a-7c94-4555-9b05-a9347bed93ec,36,7,girl,kiss,a,a,5,5/8/2023,20:00:42,2996
7058-f9d63c6a-7c94-4555-9b05-a9347bed93ec,36,8,brown,dirt,NA,NA,7,5/8/2023,20:00:45,2761
7058-f9d63c6a-7c94-4555-9b05-a9347bed93ec,36,9,dark,light,a,a,8,5/8/2023,20:00:50,4297
7058-f9d63c6a-7c94-4555-9b05-a9347bed93ec,36,10,circus,tent,a,a,2,5/8/2023,20:00:53,2249
7058-f9d63c6a-7c94-4555-9b05-a9347bed93ec,36,11,hot,macaroni,NA,NA,6,5/8/2023,20:00:56,2639
7058-f9d63c6a-7c94-4555-9b05-a9347bed93ec,36,12,dark,green,NA,NA,3,5/8/2023,20:01:01,4295
7058-f9d63c6a-7c94-4555-9b05-a9347bed93ec,36,13,honey,mommy,a,a,8,5/8/2023,20:01:04,2451
7058-f9d63c6a-7c94-4555-9b05-a9347bed93ec,36,14,cinnamon,stick,a,a,2,5/8/2023,20:01:06,1932
7058-f9d63c6a-7c94-4555-9b05-a9347bed93ec,36,15,ham,salad,a,a,1,5/8/2023,20:01:10,3895
7058-f9d63c6a-7c94-4555-9b05-a9347bed93ec,36,16,roast,lamb,a,a,5,5/8/2023,20:01:13,2747
7058-f9d63c6a-7c94-4555-9b05-a9347bed93ec,36,17,school,girl,a,a,3,5/8/2023,20:01:17,3321
7058-f9d63c6a-7c94-4555-9b05-a9347bed93ec,36,18,crispy,worm,a,a,1,5/8/2023,20:01:22,4362
7058-f9d63c6a-7c94-4555-9b05-a9347bed93ec,36,19,gold,weaver,a,a,1,5/8/2023,20:01:27,5217
7058-f9d63c6a-7c94-4555-9b05-a9347bed93ec,36,20,yellow,hoop,a,a,3,5/8/2023,20:01:30,2056
7058-f9d63c6a-7c94-4555-9b05-a9347bed93ec,36,21,eleven,square,a,an,8,5/8/2023,20:01:33,2321
7058-f9d63c6a-7c94-4555-9b05-a9347bed93ec,36,22,honey,pie,a,a,1,5/8/2023,20:01:35,1828
7058-f9d63c6a-7c94-4555-9b05-a9347bed93ec,36,23,house,person,a,a,8,5/8/2023,20:01:39,4085
7058-f9d63c6a-7c94-4555-9b05-a9347bed93ec,36,24,pencil,show,a,a,1,5/8/2023,20:01:42,2020
7058-f9d63c6a-7c94-4555-9b05-a9347bed93ec,36,25,arrow,sign,a,an,3,5/8/2023,20:01:45,2901
7058-f9d63c6a-7c94-4555-9b05-a9347bed93ec,36,26,track,suit,a,a,2,5/8/2023,20:01:48,2317
7058-f9d63c6a-7c94-4555-9b05-a9347bed93ec,36,27,train,gate,a,a,2,5/8/2023,20:01:50,2025
7058-f9d63c6a-7c94-4555-9b05-a9347bed93ec,36,28,red,notebook,a,a,3,5/8/2023,20:01:52,1619
7058-f9d63c6a-7c94-4555-9b05-a9347bed93ec,36,29,brother,drive,a,a,2,5/8/2023,20:01:57,3895
7058-f9d63c6a-7c94-4555-9b05-a9347bed93ec,36,30,NA,NA,NA,NA,5,5/8/2023,20:01:59,1954
7058-f9d63c6a-7c94-4555-9b05-a9347bed93ec,36,31,oak,chest,a,an,4,5/8/2023,20:02:04,4405
7058-f9d63c6a-7c94-4555-9b05-a9347bed93ec,36,32,navy,skirt,a,a,3,5/8/2023,20:02:06,2093
7058-f9d63c6a-7c94-4555-9b05-a9347bed93ec,36,33,pink,robe,a,a,4,5/8/2023,20:02:10,2921
7058-f9d63c6a-7c94-4555-9b05-a9347bed93ec,36,34,thick,eyelash,an,a,3,5/8/2023,20:02:13,3160
7058-f9d63c6a-7c94-4555-9b05-a9347bed93ec,36,35,slide,leg,a,a,2,5/8/2023,20:02:18,4528
8430-7c88f661-1121-42c0-b313-cf500f0eddcb,67,0,cellar,door,a,a,2,5/8/2023,20:56:17,3891
8430-7c88f661-1121-42c0-b313-cf500f0eddcb,67,1,maple,bar,a,a,3,5/8/2023,20:56:23,4636
8430-7c88f661-1121-42c0-b313-cf500f0eddcb,67,2,motorway,bridge,a,a,2,5/8/2023,20:56:26,3374
8430-7c88f661-1121-42c0-b313-cf500f0eddcb,67,3,block,tree,a,a,8,5/8/2023,20:56:30,3082
8430-7c88f661-1121-42c0-b313-cf500f0eddcb,67,4,NA,NA,NA,NA,5,5/8/2023,20:56:34,4130
8430-7c88f661-1121-42c0-b313-cf500f0eddcb,67,5,cardboard,box,a,a,4,5/8/2023,20:56:38,3036
8430-7c88f661-1121-42c0-b313-cf500f0eddcb,67,6,slap,clap,a,a,8,5/8/2023,20:56:41,2420
8430-7c88f661-1121-42c0-b313-cf500f0eddcb,67,7,molar,coaster,a,a,8,5/8/2023,20:56:44,3133
8430-7c88f661-1121-42c0-b313-cf500f0eddcb,67,8,freezing,road,a,a,1,5/8/2023,20:56:49,4658
8430-7c88f661-1121-42c0-b313-cf500f0eddcb,67,9,knee,honey,NA,NA,8,5/8/2023,20:56:53,3166
8430-7c88f661-1121-42c0-b313-cf500f0eddcb,67,10,orange,tea,NA,NA,2,5/8/2023,20:56:56,3089
8430-7c88f661-1121-42c0-b313-cf500f0eddcb,67,11,statue,toy,a,a,1,5/8/2023,20:57:00,3492
8430-7c88f661-1121-42c0-b313-cf500f0eddcb,67,12,crispy,brown,NA,NA,1,5/8/2023,20:57:04,3065
8430-7c88f661-1121-42c0-b313-cf500f0eddcb,67,13,web,shooter,a,a,2,5/8/2023,20:57:09,4821
8430-7c88f661-1121-42c0-b313-cf500f0eddcb,67,14,purple,bed,a,a,2,5/8/2023,20:57:12,2427
8430-7c88f661-1121-42c0-b313-cf500f0eddcb,67,15,flat,fish,a,a,8,5/8/2023,20:57:15,3045
8430-7c88f661-1121-42c0-b313-cf500f0eddcb,67,16,heel,boot,a,a,8,5/8/2023,20:57:20,4073
8430-7c88f661-1121-42c0-b313-cf500f0eddcb,67,17,wastepaper,basket,a,a,3,5/8/2023,20:57:25,4386
8430-7c88f661-1121-42c0-b313-cf500f0eddcb,67,18,snow,leopard,a,a,3,5/8/2023,20:57:29,3867
8430-7c88f661-1121-42c0-b313-cf500f0eddcb,67,19,back,flip,a,a,2,5/8/2023,20:57:32,3029
8430-7c88f661-1121-42c0-b313-cf500f0eddcb,67,20,cock,bird,a,a,8,5/8/2023,20:57:38,4765
8430-7c88f661-1121-42c0-b313-cf500f0eddcb,67,21,purple,cup,a,a,2,5/8/2023,20:57:42,3678
8430-7c88f661-1121-42c0-b313-cf500f0eddcb,67,22,peach,juice,NA,NA,2,5/8/2023,20:57:45,2678
8430-7c88f661-1121-42c0-b313-cf500f0eddcb,67,23,sweet,chocolate,NA,NA,3,5/8/2023,20:57:48,2861
8430-7c88f661-1121-42c0-b313-cf500f0eddcb,67,24,dark,line,a,a,2,5/8/2023,20:57:51,3018
8430-7c88f661-1121-42c0-b313-cf500f0eddcb,67,25,brown,egg,an,a,4,5/8/2023,20:57:56,4314
8430-7c88f661-1121-42c0-b313-cf500f0eddcb,67,26,train,ride,a,a,3,5/8/2023,20:58:00,3811
8430-7c88f661-1121-42c0-b313-cf500f0eddcb,67,27,red,room,a,a,2,5/8/2023,20:58:04,3401
8430-7c88f661-1121-42c0-b313-cf500f0eddcb,67,28,red,coral,NA,NA,2,5/8/2023,20:58:07,2330
8430-7c88f661-1121-42c0-b313-cf500f0eddcb,67,29,dirty,tissue,a,a,3,5/8/2023,20:58:11,3295
8430-7c88f661-1121-42c0-b313-cf500f0eddcb,67,30,house,shoe,a,a,2,5/8/2023,20:58:15,3404
8430-7c88f661-1121-42c0-b313-cf500f0eddcb,67,31,orange,glasses,NA,NA,2,5/8/2023,20:58:18,2844
8430-7c88f661-1121-42c0-b313-cf500f0eddcb,67,32,orange,tube,a,an,2,5/8/2023,20:58:21,2910
8430-7c88f661-1121-42c0-b313-cf500f0eddcb,67,33,dead,minty,a,a,8,5/8/2023,20:58:26,4172
8430-7c88f661-1121-42c0-b313-cf500f0eddcb,67,34,explorer,suit,a,an,3,5/8/2023,20:58:35,8764
8430-7c88f661-1121-42c0-b313-cf500f0eddcb,67,35,glass,table,a,a,4,5/8/2023,20:58:39,3461
1318-c759fab4-0a83-43ac-93f5-4c704c0c054a,59,0,colored,paper,a,a,5,5/8/2023,20:53:48,4113
1318-c759fab4-0a83-43ac-93f5-4c704c0c054a,59,1,trash,truck,a,a,5,5/8/2023,20:53:51,2768
1318-c759fab4-0a83-43ac-93f5-4c704c0c054a,59,2,fuzzy,slipper,a,a,5,5/8/2023,20:53:54,2437
1318-c759fab4-0a83-43ac-93f5-4c704c0c054a,59,3,bottom,tooth,a,a,5,5/8/2023,20:53:57,2918
1318-c759fab4-0a83-43ac-93f5-4c704c0c054a,59,4,night,night,a,a,8,5/8/2023,20:54:02,4190
1318-c759fab4-0a83-43ac-93f5-4c704c0c054a,59,5,body,tip,a,a,3,5/8/2023,20:54:06,3920
1318-c759fab4-0a83-43ac-93f5-4c704c0c054a,59,6,girl,bed,a,a,3,5/8/2023,20:54:09,2641
1318-c759fab4-0a83-43ac-93f5-4c704c0c054a,59,7,NA,NA,NA,NA,5,5/8/2023,20:54:11,1922
1318-c759fab4-0a83-43ac-93f5-4c704c0c054a,59,8,tennis,court,a,a,5,5/8/2023,20:54:16,3941
1318-c759fab4-0a83-43ac-93f5-4c704c0c054a,59,9,boxing,glove,a,a,5,5/8/2023,20:54:20,3337
1318-c759fab4-0a83-43ac-93f5-4c704c0c054a,59,10,hot,mom,a,a,5,5/8/2023,20:54:24,3556
1318-c759fab4-0a83-43ac-93f5-4c704c0c054a,59,11,feather,mattress,a,a,3,5/8/2023,20:54:28,4192
1318-c759fab4-0a83-43ac-93f5-4c704c0c054a,59,12,dragon,stroller,a,a,2,5/8/2023,20:54:32,3324
1318-c759fab4-0a83-43ac-93f5-4c704c0c054a,59,13,jelly,fish,a,a,5,5/8/2023,20:54:35,2506
1318-c759fab4-0a83-43ac-93f5-4c704c0c054a,59,14,tonic,water,NA,NA,5,5/8/2023,20:54:38,2289
1318-c759fab4-0a83-43ac-93f5-4c704c0c054a,59,15,dark,one,a,a,8,5/8/2023,20:54:41,2937
1318-c759fab4-0a83-43ac-93f5-4c704c0c054a,59,16,dirty,bowl,a,a,3,5/8/2023,20:54:44,2407
1318-c759fab4-0a83-43ac-93f5-4c704c0c054a,59,17,dolphin,family,a,a,3,5/8/2023,20:54:46,2244
1318-c759fab4-0a83-43ac-93f5-4c704c0c054a,59,18,stroller,toy,a,a,3,5/8/2023,20:54:49,2203
1318-c759fab4-0a83-43ac-93f5-4c704c0c054a,59,19,green,tail,a,a,2,5/8/2023,20:54:52,3141
1318-c759fab4-0a83-43ac-93f5-4c704c0c054a,59,20,monkey,song,a,a,3,5/8/2023,20:54:55,2056
1318-c759fab4-0a83-43ac-93f5-4c704c0c054a,59,21,crust,parking,NA,NA,8,5/8/2023,20:54:59,3590
1318-c759fab4-0a83-43ac-93f5-4c704c0c054a,59,22,silver,bell,a,a,5,5/8/2023,20:55:02,2824
1318-c759fab4-0a83-43ac-93f5-4c704c0c054a,59,23,red,flag,a,a,5,5/8/2023,20:55:06,2989
1318-c759fab4-0a83-43ac-93f5-4c704c0c054a,59,24,tattoo,heart,a,a,3,5/8/2023,20:55:15,9008
1318-c759fab4-0a83-43ac-93f5-4c704c0c054a,59,25,hot,water,NA,NA,5,5/8/2023,20:55:23,7640
1318-c759fab4-0a83-43ac-93f5-4c704c0c054a,59,26,baby,penguin,a,a,5,5/8/2023,20:55:26,2393
1318-c759fab4-0a83-43ac-93f5-4c704c0c054a,59,27,dress,piece,a,a,3,5/8/2023,20:55:31,4655
1318-c759fab4-0a83-43ac-93f5-4c704c0c054a,59,28,smiley,guy,a,a,3,5/8/2023,20:55:36,4941
1318-c759fab4-0a83-43ac-93f5-4c704c0c054a,59,29,pound,lunch,a,a,8,5/8/2023,20:55:40,3192
1318-c759fab4-0a83-43ac-93f5-4c704c0c054a,59,30,ground,squirrel,a,a,8,5/8/2023,20:55:43,3159
1318-c759fab4-0a83-43ac-93f5-4c704c0c054a,59,31,hot,pepper,a,a,5,5/8/2023,20:55:48,4071
1318-c759fab4-0a83-43ac-93f5-4c704c0c054a,59,32,bear,swimming,NA,NA,3,5/8/2023,20:55:57,8692
1318-c759fab4-0a83-43ac-93f5-4c704c0c054a,59,33,crust,crust,a,a,8,5/8/2023,20:56:00,2761
1318-c759fab4-0a83-43ac-93f5-4c704c0c054a,59,34,farm,tractor,a,a,5,5/8/2023,20:56:05,4800
1318-c759fab4-0a83-43ac-93f5-4c704c0c054a,59,35,key,planet,a,a,8,5/8/2023,20:56:12,6138
5553-0533f8b5-bf7d-4a84-8c66-199faef96ac0,82,0,curly,tail,a,a,3,5/8/2023,20:12:06,3242
5553-0533f8b5-bf7d-4a84-8c66-199faef96ac0,82,1,stairs,kid,a,a,8,5/8/2023,20:12:09,2518
5553-0533f8b5-bf7d-4a84-8c66-199faef96ac0,82,2,oatmeal,pie,a,an,2,5/8/2023,20:12:12,2965
5553-0533f8b5-bf7d-4a84-8c66-199faef96ac0,82,3,green,jacket,a,a,3,5/8/2023,20:12:15,2362
5553-0533f8b5-bf7d-4a84-8c66-199faef96ac0,82,4,hot,shake,a,a,8,5/8/2023,20:12:19,3090
5553-0533f8b5-bf7d-4a84-8c66-199faef96ac0,82,5,back,porch,a,a,4,5/8/2023,20:12:22,2671
5553-0533f8b5-bf7d-4a84-8c66-199faef96ac0,82,6,pterodactyl,guy,a,a,8,5/8/2023,20:12:25,3258
5553-0533f8b5-bf7d-4a84-8c66-199faef96ac0,82,7,thick,canopy,a,a,3,5/8/2023,20:12:29,3064
5553-0533f8b5-bf7d-4a84-8c66-199faef96ac0,82,8,karate,bunny,a,a,8,5/8/2023,20:12:33,3964
5553-0533f8b5-bf7d-4a84-8c66-199faef96ac0,82,9,green,vegetable,a,a,3,5/8/2023,20:12:38,3960
5553-0533f8b5-bf7d-4a84-8c66-199faef96ac0,82,10,purple,cat,a,a,1,5/8/2023,20:12:41,2660
5553-0533f8b5-bf7d-4a84-8c66-199faef96ac0,82,11,dead,mommy,a,a,3,5/8/2023,20:12:45,4121
5553-0533f8b5-bf7d-4a84-8c66-199faef96ac0,82,12,wax,jacket,a,a,8,5/8/2023,20:13:48,62293
5553-0533f8b5-bf7d-4a84-8c66-199faef96ac0,82,13,baby,elephant,an,a,4,5/8/2023,20:13:52,3428
5553-0533f8b5-bf7d-4a84-8c66-199faef96ac0,82,14,color,one,a,a,8,5/8/2023,20:13:55,2493
5553-0533f8b5-bf7d-4a84-8c66-199faef96ac0,82,15,bottom,lip,a,a,4,5/8/2023,20:13:57,2235
5553-0533f8b5-bf7d-4a84-8c66-199faef96ac0,82,16,bird,cage,a,a,3,5/8/2023,20:14:01,3683
5553-0533f8b5-bf7d-4a84-8c66-199faef96ac0,82,17,thick,clip,a,a,3,5/8/2023,20:14:05,3017
5553-0533f8b5-bf7d-4a84-8c66-199faef96ac0,82,18,zoo,man,a,a,8,5/8/2023,20:14:08,2532
5553-0533f8b5-bf7d-4a84-8c66-199faef96ac0,82,19,kitty,cat,a,a,7,5/8/2023,20:14:11,3035
5553-0533f8b5-bf7d-4a84-8c66-199faef96ac0,82,20,trash,car,a,a,8,5/8/2023,20:14:15,3183
5553-0533f8b5-bf7d-4a84-8c66-199faef96ac0,82,21,office,phone,a,an,3,5/8/2023,20:14:23,8081
5553-0533f8b5-bf7d-4a84-8c66-199faef96ac0,82,22,bottom,row,a,a,4,5/8/2023,20:14:31,7667
5553-0533f8b5-bf7d-4a84-8c66-199faef96ac0,82,23,flip,hitter,a,a,8,5/8/2023,20:14:34,2278
5553-0533f8b5-bf7d-4a84-8c66-199faef96ac0,82,24,brown,spot,a,a,3,5/8/2023,20:14:39,5004
5553-0533f8b5-bf7d-4a84-8c66-199faef96ac0,82,25,equipment,couple,a,an,8,5/8/2023,20:14:43,2655
5553-0533f8b5-bf7d-4a84-8c66-199faef96ac0,82,26,player,generation,a,a,8,5/8/2023,20:14:47,3692
5553-0533f8b5-bf7d-4a84-8c66-199faef96ac0,82,27,kitchen,bathroom,a,a,1,5/8/2023,20:14:57,10202
5553-0533f8b5-bf7d-4a84-8c66-199faef96ac0,82,28,sun,lotion,NA,NA,3,5/8/2023,20:15:04,6347
5553-0533f8b5-bf7d-4a84-8c66-199faef96ac0,82,29,bath,colors,a,a,8,5/8/2023,20:15:07,2898
5553-0533f8b5-bf7d-4a84-8c66-199faef96ac0,82,30,balloon,bear,a,a,8,5/8/2023,20:15:11,3667
5553-0533f8b5-bf7d-4a84-8c66-199faef96ac0,82,31,couple,crayon,a,a,8,5/8/2023,20:15:15,2931
5553-0533f8b5-bf7d-4a84-8c66-199faef96ac0,82,32,yellow,bill,a,a,3,5/8/2023,20:15:22,7198
5553-0533f8b5-bf7d-4a84-8c66-199faef96ac0,82,33,brown,bear,a,a,5,5/8/2023,20:15:29,6746
5553-0533f8b5-bf7d-4a84-8c66-199faef96ac0,82,34,garbage,can,a,a,3,5/8/2023,20:15:35,4694
5553-0533f8b5-bf7d-4a84-8c66-199faef96ac0,82,35,NA,NA,NA,NA,5,5/8/2023,20:15:37,1903
0428-33ac398d-2291-41dd-a337-8c2a902fc3f0,164,0,rice,cake,a,a,3,5/8/2023,22:09:41,2903
0428-33ac398d-2291-41dd-a337-8c2a902fc3f0,164,1,eat,pretzel,a,an,8,5/8/2023,22:09:47,5423
0428-33ac398d-2291-41dd-a337-8c2a902fc3f0,164,2,dancing,bud,a,a,2,5/8/2023,22:09:50,3009
0428-33ac398d-2291-41dd-a337-8c2a902fc3f0,164,3,sweet,leg,a,a,8,5/8/2023,22:09:53,2414
0428-33ac398d-2291-41dd-a337-8c2a902fc3f0,164,4,hot,air,NA,NA,4,5/8/2023,22:09:56,2888
0428-33ac398d-2291-41dd-a337-8c2a902fc3f0,164,5,wooden,puzzle,a,a,3,5/8/2023,22:09:59,2049
0428-33ac398d-2291-41dd-a337-8c2a902fc3f0,164,6,piano,piece,a,a,2,5/8/2023,22:10:02,2434
0428-33ac398d-2291-41dd-a337-8c2a902fc3f0,164,7,yellow,hair,NA,NA,3,5/8/2023,22:10:06,4221
0428-33ac398d-2291-41dd-a337-8c2a902fc3f0,164,8,bear,mama,a,a,3,5/8/2023,22:10:11,4014
0428-33ac398d-2291-41dd-a337-8c2a902fc3f0,164,9,pink,eyeball,an,a,2,5/8/2023,22:10:14,3093
0428-33ac398d-2291-41dd-a337-8c2a902fc3f0,164,10,flat,ball,a,a,1,5/8/2023,22:10:17,2410
0428-33ac398d-2291-41dd-a337-8c2a902fc3f0,164,11,smiley,girl,a,a,4,5/8/2023,22:10:21,2939
0428-33ac398d-2291-41dd-a337-8c2a902fc3f0,164,12,quarter,cup,a,a,3,5/8/2023,22:10:24,2584
0428-33ac398d-2291-41dd-a337-8c2a902fc3f0,164,13,cum,store,a,a,1,5/8/2023,22:10:29,4598
0428-33ac398d-2291-41dd-a337-8c2a902fc3f0,164,14,marine,tank,a,a,3,5/8/2023,22:10:33,3577
0428-33ac398d-2291-41dd-a337-8c2a902fc3f0,164,15,NA,NA,NA,NA,5,5/8/2023,22:10:35,1620
0428-33ac398d-2291-41dd-a337-8c2a902fc3f0,164,16,teacher,day,a,a,3,5/8/2023,22:10:38,2727
0428-33ac398d-2291-41dd-a337-8c2a902fc3f0,164,17,green,edge,an,a,3,5/8/2023,22:10:40,2054
0428-33ac398d-2291-41dd-a337-8c2a902fc3f0,164,18,paint,can,a,a,3,5/8/2023,22:10:43,2099
0428-33ac398d-2291-41dd-a337-8c2a902fc3f0,164,19,night,gown,a,a,4,5/8/2023,22:10:46,3346
0428-33ac398d-2291-41dd-a337-8c2a902fc3f0,164,20,cartoon,ring,a,a,2,5/8/2023,22:10:49,2447
0428-33ac398d-2291-41dd-a337-8c2a902fc3f0,164,21,ski,pants,NA,NA,2,5/8/2023,22:10:52,2067
0428-33ac398d-2291-41dd-a337-8c2a902fc3f0,164,22,dentist,skip,a,a,8,5/8/2023,22:10:54,2260
0428-33ac398d-2291-41dd-a337-8c2a902fc3f0,164,23,green,beard,a,a,2,5/8/2023,22:10:57,2496
0428-33ac398d-2291-41dd-a337-8c2a902fc3f0,164,24,sugar,snack,a,a,4,5/8/2023,22:11:01,3238
0428-33ac398d-2291-41dd-a337-8c2a902fc3f0,164,25,soup,kitchen,a,a,3,5/8/2023,22:11:04,2577
0428-33ac398d-2291-41dd-a337-8c2a902fc3f0,164,26,queen,crab,a,a,2,5/8/2023,22:11:07,2124
0428-33ac398d-2291-41dd-a337-8c2a902fc3f0,164,27,bright,punch,a,a,8,5/8/2023,22:11:09,2046
0428-33ac398d-2291-41dd-a337-8c2a902fc3f0,164,28,snow,book,a,a,3,5/8/2023,22:11:12,2292
0428-33ac398d-2291-41dd-a337-8c2a902fc3f0,164,29,frame,chip,a,a,8,5/8/2023,22:11:14,2401
0428-33ac398d-2291-41dd-a337-8c2a902fc3f0,164,30,library,sweet,a,a,8,5/8/2023,22:11:17,1818
0428-33ac398d-2291-41dd-a337-8c2a902fc3f0,164,31,click,click,a,a,8,5/8/2023,22:11:21,3540
0428-33ac398d-2291-41dd-a337-8c2a902fc3f0,164,32,hot,bowl,a,a,3,5/8/2023,22:11:24,3355
0428-33ac398d-2291-41dd-a337-8c2a902fc3f0,164,33,quack,quack,a,a,8,5/8/2023,22:11:27,1856
0428-33ac398d-2291-41dd-a337-8c2a902fc3f0,164,34,turtle,shell,a,a,2,5/8/2023,22:11:30,2530
0428-33ac398d-2291-41dd-a337-8c2a902fc3f0,164,35,night,dress,a,a,3,5/8/2023,22:11:33,2499
9390-d5179d9e-9e9b-4645-877f-d8ecbee076cd,151,0,snow,dog,a,a,2,5/1/2023,20:00:04,4575
9390-d5179d9e-9e9b-4645-877f-d8ecbee076cd,151,1,hotel,hotel,a,a,8,5/1/2023,20:00:08,3075
9390-d5179d9e-9e9b-4645-877f-d8ecbee076cd,151,2,dish,cloth,a,a,3,5/1/2023,20:00:11,3119
9390-d5179d9e-9e9b-4645-877f-d8ecbee076cd,151,3,cylinder,gas,NA,NA,2,5/1/2023,20:00:15,2911
9390-d5179d9e-9e9b-4645-877f-d8ecbee076cd,151,4,honey,honey,NA,NA,8,5/1/2023,20:00:17,2029
9390-d5179d9e-9e9b-4645-877f-d8ecbee076cd,151,5,baby,stroller,a,a,4,5/1/2023,20:00:21,3883
9390-d5179d9e-9e9b-4645-877f-d8ecbee076cd,151,6,cursive,letter,a,a,3,5/1/2023,20:00:26,4009
9390-d5179d9e-9e9b-4645-877f-d8ecbee076cd,151,7,yellow,dragon,a,a,2,5/1/2023,20:00:29,2969
9390-d5179d9e-9e9b-4645-877f-d8ecbee076cd,151,8,grape,fruit,a,a,2,5/1/2023,20:00:34,4262
9390-d5179d9e-9e9b-4645-877f-d8ecbee076cd,151,9,apple,mountain,a,an,1,5/1/2023,20:00:38,3765
9390-d5179d9e-9e9b-4645-877f-d8ecbee076cd,151,10,raptor,guy,a,a,2,5/1/2023,20:00:42,3564
9390-d5179d9e-9e9b-4645-877f-d8ecbee076cd,151,11,red,sweet,a,a,2,5/1/2023,20:00:46,3466
9390-d5179d9e-9e9b-4645-877f-d8ecbee076cd,151,12,green,scooter,a,a,2,5/1/2023,20:00:49,2967
9390-d5179d9e-9e9b-4645-877f-d8ecbee076cd,151,13,yellow,duckling,a,a,7,5/1/2023,20:00:53,3096
9390-d5179d9e-9e9b-4645-877f-d8ecbee076cd,151,14,clap,clap,a,a,8,5/1/2023,20:00:57,3620
9390-d5179d9e-9e9b-4645-877f-d8ecbee076cd,151,15,orange,sticker,a,an,2,5/1/2023,20:01:01,4003
9390-d5179d9e-9e9b-4645-877f-d8ecbee076cd,151,16,dirty,crayon,a,a,3,5/1/2023,20:01:04,2608
9390-d5179d9e-9e9b-4645-877f-d8ecbee076cd,151,17,fat,house,a,a,8,5/1/2023,20:01:09,4599
9390-d5179d9e-9e9b-4645-877f-d8ecbee076cd,151,18,stone,cup,a,a,2,5/1/2023,20:01:13,3213
9390-d5179d9e-9e9b-4645-877f-d8ecbee076cd,151,19,cheddar,bunny,a,a,8,5/1/2023,20:01:16,2548
9390-d5179d9e-9e9b-4645-877f-d8ecbee076cd,151,20,gold,ticket,a,a,2,5/1/2023,20:01:26,10222
9390-d5179d9e-9e9b-4645-877f-d8ecbee076cd,151,21,girl,hood,a,a,3,5/1/2023,20:01:31,4413
9390-d5179d9e-9e9b-4645-877f-d8ecbee076cd,151,22,NA,NA,NA,NA,5,5/1/2023,20:01:34,2267
9390-d5179d9e-9e9b-4645-877f-d8ecbee076cd,151,23,night,day,a,a,8,5/1/2023,20:01:37,2899
9390-d5179d9e-9e9b-4645-877f-d8ecbee076cd,151,24,giant,shadow,a,a,2,5/1/2023,20:01:41,3465
9390-d5179d9e-9e9b-4645-877f-d8ecbee076cd,151,25,bear,ballerina,a,a,8,5/1/2023,20:01:46,4639
9390-d5179d9e-9e9b-4645-877f-d8ecbee076cd,151,26,push,baby,a,a,8,5/1/2023,20:01:51,4333
9390-d5179d9e-9e9b-4645-877f-d8ecbee076cd,151,27,pot,pigeon,a,a,8,5/1/2023,20:01:55,3692
9390-d5179d9e-9e9b-4645-877f-d8ecbee076cd,151,28,concrete,driveway,a,a,4,5/1/2023,20:01:59,3138
9390-d5179d9e-9e9b-4645-877f-d8ecbee076cd,151,29,purple,dinosaur,a,a,2,5/1/2023,20:02:03,4326
9390-d5179d9e-9e9b-4645-877f-d8ecbee076cd,151,30,cereal,box,a,a,2,5/1/2023,20:02:06,2614
9390-d5179d9e-9e9b-4645-877f-d8ecbee076cd,151,31,moon,game,a,a,1,5/1/2023,20:02:10,3436
9390-d5179d9e-9e9b-4645-877f-d8ecbee076cd,151,32,porcupine,piece,a,a,1,5/1/2023,20:02:14,3730
9390-d5179d9e-9e9b-4645-877f-d8ecbee076cd,151,33,giant,juice,NA,NA,8,5/1/2023,20:02:18,3069
9390-d5179d9e-9e9b-4645-877f-d8ecbee076cd,151,34,girl,colors,a,a,3,5/1/2023,20:02:23,4351
9390-d5179d9e-9e9b-4645-877f-d8ecbee076cd,151,35,burnt,charcoal,NA,NA,4,5/1/2023,20:02:26,3308
9739-12ea9b5a-1f6e-4696-9eb9-2b18a3ab9a23,180,0,train,station,a,a,3,5/1/2023,20:11:37,7350
9739-12ea9b5a-1f6e-4696-9eb9-2b18a3ab9a23,180,1,boy,sock,a,a,3,5/1/2023,20:11:42,5104
9739-12ea9b5a-1f6e-4696-9eb9-2b18a3ab9a23,180,2,bear,brother,a,a,8,5/1/2023,20:11:47,4838
9739-12ea9b5a-1f6e-4696-9eb9-2b18a3ab9a23,180,3,wood,window,a,a,3,5/1/2023,20:11:52,4464
9739-12ea9b5a-1f6e-4696-9eb9-2b18a3ab9a23,180,4,green,triceratops,a,a,2,5/1/2023,20:11:58,5189
9739-12ea9b5a-1f6e-4696-9eb9-2b18a3ab9a23,180,5,thick,model,a,a,3,5/1/2023,20:12:03,4172
9739-12ea9b5a-1f6e-4696-9eb9-2b18a3ab9a23,180,6,man,village,a,a,2,5/1/2023,20:12:07,4275
9739-12ea9b5a-1f6e-4696-9eb9-2b18a3ab9a23,180,7,bottom,stair,a,a,2,5/1/2023,20:12:12,4137
9739-12ea9b5a-1f6e-4696-9eb9-2b18a3ab9a23,180,8,kettle,drum,a,a,2,5/1/2023,20:12:15,2930
9739-12ea9b5a-1f6e-4696-9eb9-2b18a3ab9a23,180,9,monkey,dance,a,a,2,5/1/2023,20:12:18,2647
9739-12ea9b5a-1f6e-4696-9eb9-2b18a3ab9a23,180,10,baby,bunny,a,a,7,5/1/2023,20:12:26,6958
9739-12ea9b5a-1f6e-4696-9eb9-2b18a3ab9a23,180,11,garlic,mommy,a,a,2,5/1/2023,20:12:33,7163
9739-12ea9b5a-1f6e-4696-9eb9-2b18a3ab9a23,180,12,closet,door,a,a,2,5/1/2023,20:12:38,4650
9739-12ea9b5a-1f6e-4696-9eb9-2b18a3ab9a23,180,13,brown,bread,NA,NA,3,5/1/2023,20:12:42,3417
9739-12ea9b5a-1f6e-4696-9eb9-2b18a3ab9a23,180,14,foot,trunk,a,a,2,5/1/2023,20:12:48,5120
9739-12ea9b5a-1f6e-4696-9eb9-2b18a3ab9a23,180,15,grey,grey,NA,NA,8,5/1/2023,20:12:50,2060
9739-12ea9b5a-1f6e-4696-9eb9-2b18a3ab9a23,180,16,water,running,NA,NA,8,5/1/2023,20:12:54,3201
9739-12ea9b5a-1f6e-4696-9eb9-2b18a3ab9a23,180,17,yellow,white,NA,NA,2,5/1/2023,20:13:00,5872
9739-12ea9b5a-1f6e-4696-9eb9-2b18a3ab9a23,180,18,corn,fan,a,a,2,5/1/2023,20:13:07,6390
9739-12ea9b5a-1f6e-4696-9eb9-2b18a3ab9a23,180,19,red,girl,a,a,2,5/1/2023,20:13:11,3787
9739-12ea9b5a-1f6e-4696-9eb9-2b18a3ab9a23,180,20,daddy,pop,a,a,2,5/1/2023,20:13:15,3833
9739-12ea9b5a-1f6e-4696-9eb9-2b18a3ab9a23,180,21,pink,noodle,a,a,3,5/1/2023,20:13:21,5495
9739-12ea9b5a-1f6e-4696-9eb9-2b18a3ab9a23,180,22,purple,bunny,a,a,2,5/1/2023,20:13:25,3226
9739-12ea9b5a-1f6e-4696-9eb9-2b18a3ab9a23,180,23,chip,cookie,a,a,3,5/1/2023,20:13:29,3513
9739-12ea9b5a-1f6e-4696-9eb9-2b18a3ab9a23,180,24,green,airplane,an,a,2,5/1/2023,20:13:32,2656
9739-12ea9b5a-1f6e-4696-9eb9-2b18a3ab9a23,180,25,NA,NA,NA,NA,5,5/1/2023,20:13:34,1666
9739-12ea9b5a-1f6e-4696-9eb9-2b18a3ab9a23,180,26,picnic,patch,a,a,2,5/1/2023,20:13:41,6645
9739-12ea9b5a-1f6e-4696-9eb9-2b18a3ab9a23,180,27,corner,house,a,a,2,5/1/2023,20:13:46,4129
9739-12ea9b5a-1f6e-4696-9eb9-2b18a3ab9a23,180,28,bottom,cupboard,a,a,3,5/1/2023,20:13:50,3360
9739-12ea9b5a-1f6e-4696-9eb9-2b18a3ab9a23,180,29,mother,mother,a,a,8,5/1/2023,20:13:53,2645
9739-12ea9b5a-1f6e-4696-9eb9-2b18a3ab9a23,180,30,poison,berry,a,a,2,5/1/2023,20:13:56,2523
9739-12ea9b5a-1f6e-4696-9eb9-2b18a3ab9a23,180,31,plastic,bottle,a,a,4,5/1/2023,20:14:03,6909
9739-12ea9b5a-1f6e-4696-9eb9-2b18a3ab9a23,180,32,hot,screaming,NA,NA,8,5/1/2023,20:14:07,3711
9739-12ea9b5a-1f6e-4696-9eb9-2b18a3ab9a23,180,33,pink,bubblegum,NA,NA,5,5/1/2023,20:14:10,2324
9739-12ea9b5a-1f6e-4696-9eb9-2b18a3ab9a23,180,34,yellow,pants,NA,NA,3,5/1/2023,20:14:13,3266
9739-12ea9b5a-1f6e-4696-9eb9-2b18a3ab9a23,180,35,cell,phone,a,a,5,5/1/2023,20:14:17,3455
8896-f749d0f0-e872-4228-a548-e1b22e92ba8e,63,0,climb,climb,a,a,1,5/1/2023,17:38:41,2346
8896-f749d0f0-e872-4228-a548-e1b22e92ba8e,63,1,NA,NA,NA,NA,5,5/1/2023,17:38:44,2358
8896-f749d0f0-e872-4228-a548-e1b22e92ba8e,63,2,yellow,overalls,NA,NA,3,5/1/2023,17:38:47,2573
8896-f749d0f0-e872-4228-a548-e1b22e92ba8e,63,3,fruit,sherry,NA,NA,5,5/1/2023,17:38:50,2680
8896-f749d0f0-e872-4228-a548-e1b22e92ba8e,63,4,cellar,key,a,a,2,5/1/2023,17:38:54,3400
8896-f749d0f0-e872-4228-a548-e1b22e92ba8e,63,5,tire,swing,a,a,3,5/1/2023,17:38:58,3294
8896-f749d0f0-e872-4228-a548-e1b22e92ba8e,63,6,mommy,squirrel,a,a,3,5/1/2023,17:39:01,3119
8896-f749d0f0-e872-4228-a548-e1b22e92ba8e,63,7,sing,day,a,a,1,5/1/2023,17:39:08,6458
8896-f749d0f0-e872-4228-a548-e1b22e92ba8e,63,8,round,case,a,a,3,5/1/2023,17:39:10,2050
8896-f749d0f0-e872-4228-a548-e1b22e92ba8e,63,9,baby,food,NA,NA,3,5/1/2023,17:39:13,1998
8896-f749d0f0-e872-4228-a548-e1b22e92ba8e,63,10,top,sinking,a,a,1,5/1/2023,17:39:16,2372
8896-f749d0f0-e872-4228-a548-e1b22e92ba8e,63,11,night,armadillo,an,a,3,5/1/2023,17:39:20,3818
8896-f749d0f0-e872-4228-a548-e1b22e92ba8e,63,12,pound,postage,NA,NA,3,5/1/2023,17:39:22,2200
8896-f749d0f0-e872-4228-a548-e1b22e92ba8e,63,13,orange,box,a,an,3,5/1/2023,17:39:25,2489
8896-f749d0f0-e872-4228-a548-e1b22e92ba8e,63,14,back,alley,an,a,6,5/1/2023,17:39:29,2750
8896-f749d0f0-e872-4228-a548-e1b22e92ba8e,63,15,paper,cup,a,a,3,5/1/2023,17:39:31,1622
8896-f749d0f0-e872-4228-a548-e1b22e92ba8e,63,16,pound,note,a,a,3,5/1/2023,17:39:34,3412
8896-f749d0f0-e872-4228-a548-e1b22e92ba8e,63,17,vegetable,salad,a,a,6,5/1/2023,17:39:38,3027
8896-f749d0f0-e872-4228-a548-e1b22e92ba8e,63,18,pound,prize,a,a,2,5/1/2023,17:39:41,2800
8896-f749d0f0-e872-4228-a548-e1b22e92ba8e,63,19,college,lecturer,a,a,5,5/1/2023,17:39:45,4011
8896-f749d0f0-e872-4228-a548-e1b22e92ba8e,63,20,yellow,submarine,a,a,3,5/1/2023,17:39:50,3848
8896-f749d0f0-e872-4228-a548-e1b22e92ba8e,63,21,bunny,rabbit,a,a,7,5/1/2023,17:39:53,2808
8896-f749d0f0-e872-4228-a548-e1b22e92ba8e,63,22,water,board,a,a,3,5/1/2023,17:39:55,2118
8896-f749d0f0-e872-4228-a548-e1b22e92ba8e,63,23,ear,infection,an,an,3,5/1/2023,17:39:58,1992
8896-f749d0f0-e872-4228-a548-e1b22e92ba8e,63,24,baby,piggy,a,a,3,5/1/2023,17:40:00,1938
8896-f749d0f0-e872-4228-a548-e1b22e92ba8e,63,25,night,cow,a,a,1,5/1/2023,17:40:03,2361
8896-f749d0f0-e872-4228-a548-e1b22e92ba8e,63,26,pecan,cluster,a,a,3,5/1/2023,17:40:06,2590
8896-f749d0f0-e872-4228-a548-e1b22e92ba8e,63,27,daddy,mop,a,a,1,5/1/2023,17:40:09,2287
8896-f749d0f0-e872-4228-a548-e1b22e92ba8e,63,28,yellow,man,a,a,2,5/1/2023,17:40:11,1888
8896-f749d0f0-e872-4228-a548-e1b22e92ba8e,63,29,green,jungle,a,a,7,5/1/2023,17:40:14,2715
8896-f749d0f0-e872-4228-a548-e1b22e92ba8e,63,30,wet,sticker,a,a,3,5/1/2023,17:40:18,2936
8896-f749d0f0-e872-4228-a548-e1b22e92ba8e,63,31,broken,bag,a,a,2,5/1/2023,17:40:20,2111
8896-f749d0f0-e872-4228-a548-e1b22e92ba8e,63,32,nail,polish,NA,NA,5,5/1/2023,17:40:23,3003
8896-f749d0f0-e872-4228-a548-e1b22e92ba8e,63,33,dead,fish,a,a,4,5/1/2023,17:40:26,2146
8896-f749d0f0-e872-4228-a548-e1b22e92ba8e,63,34,pregnant,person,a,a,3,5/1/2023,17:40:28,2006
8896-f749d0f0-e872-4228-a548-e1b22e92ba8e,63,35,thick,wood,NA,NA,4,5/1/2023,17:40:32,3516
6822-50566484-f5bb-49a7-82e1-10afa095e4ea,38,0,sea,green,NA,NA,3,5/1/2023,18:13:24,2032
6822-50566484-f5bb-49a7-82e1-10afa095e4ea,38,1,carrot,peel,a,a,3,5/1/2023,18:13:27,2416
6822-50566484-f5bb-49a7-82e1-10afa095e4ea,38,2,yarn,basket,a,a,3,5/1/2023,18:13:29,1440
6822-50566484-f5bb-49a7-82e1-10afa095e4ea,38,3,frosty,hug,a,a,8,5/1/2023,18:13:31,1666
6822-50566484-f5bb-49a7-82e1-10afa095e4ea,38,4,walk,path,a,a,3,5/1/2023,18:13:33,1624
6822-50566484-f5bb-49a7-82e1-10afa095e4ea,38,5,purple,star,a,a,2,5/1/2023,18:13:35,1792
6822-50566484-f5bb-49a7-82e1-10afa095e4ea,38,6,eight,piece,a,an,3,5/1/2023,18:13:38,2159
6822-50566484-f5bb-49a7-82e1-10afa095e4ea,38,7,bed,sheet,a,a,4,5/1/2023,18:13:40,1706
6822-50566484-f5bb-49a7-82e1-10afa095e4ea,38,8,NA,NA,NA,NA,5,5/1/2023,18:13:42,1529
6822-50566484-f5bb-49a7-82e1-10afa095e4ea,38,9,pill,box,a,a,3,5/1/2023,18:13:44,1657
6822-50566484-f5bb-49a7-82e1-10afa095e4ea,38,10,sit,bar,a,a,8,5/1/2023,18:13:46,1584
6822-50566484-f5bb-49a7-82e1-10afa095e4ea,38,11,blackberry,patch,a,a,3,5/1/2023,18:13:48,1641
6822-50566484-f5bb-49a7-82e1-10afa095e4ea,38,12,drool,girl,a,a,8,5/1/2023,18:13:50,1521
6822-50566484-f5bb-49a7-82e1-10afa095e4ea,38,13,fuzzy,teddy,a,a,3,5/1/2023,18:13:52,1632
6822-50566484-f5bb-49a7-82e1-10afa095e4ea,38,14,red,color,a,a,2,5/1/2023,18:13:54,1689
6822-50566484-f5bb-49a7-82e1-10afa095e4ea,38,15,hind,leg,a,a,3,5/1/2023,18:13:56,1760
6822-50566484-f5bb-49a7-82e1-10afa095e4ea,38,16,jungle,gym,a,a,3,5/1/2023,18:13:58,1760
6822-50566484-f5bb-49a7-82e1-10afa095e4ea,38,17,dirty,player,a,a,3,5/1/2023,18:14:01,2616
6822-50566484-f5bb-49a7-82e1-10afa095e4ea,38,18,curtain,window,a,a,3,5/1/2023,18:14:03,1456
6822-50566484-f5bb-49a7-82e1-10afa095e4ea,38,19,cigar,smoke,NA,NA,3,5/1/2023,18:14:06,2488
6822-50566484-f5bb-49a7-82e1-10afa095e4ea,38,20,baby,boy,a,a,3,5/1/2023,18:14:08,1584
6822-50566484-f5bb-49a7-82e1-10afa095e4ea,38,21,orange,sweater,a,an,2,5/1/2023,18:14:10,1976
6822-50566484-f5bb-49a7-82e1-10afa095e4ea,38,22,bright,tomato,a,a,8,5/1/2023,18:14:13,2136
6822-50566484-f5bb-49a7-82e1-10afa095e4ea,38,23,fudge,sundae,a,a,3,5/1/2023,18:14:15,1592
6822-50566484-f5bb-49a7-82e1-10afa095e4ea,38,24,knitting,basket,a,a,3,5/1/2023,18:14:17,1448
6822-50566484-f5bb-49a7-82e1-10afa095e4ea,38,25,water,melon,a,a,5,5/1/2023,18:14:19,1873
6822-50566484-f5bb-49a7-82e1-10afa095e4ea,38,26,garlic,bread,NA,NA,5,5/1/2023,18:14:21,1521
6822-50566484-f5bb-49a7-82e1-10afa095e4ea,38,27,pole,light,a,a,3,5/1/2023,18:14:24,2514
6822-50566484-f5bb-49a7-82e1-10afa095e4ea,38,28,brown,syrup,NA,NA,4,5/1/2023,18:14:26,1638
6822-50566484-f5bb-49a7-82e1-10afa095e4ea,38,29,crispy,patty,a,a,3,5/1/2023,18:14:28,1722
6822-50566484-f5bb-49a7-82e1-10afa095e4ea,38,30,marmalade,fish,a,a,8,5/1/2023,18:14:30,1626
6822-50566484-f5bb-49a7-82e1-10afa095e4ea,38,31,crescent,moon,a,a,3,5/1/2023,18:14:32,1521
6822-50566484-f5bb-49a7-82e1-10afa095e4ea,38,32,night,raccoon,a,a,8,5/1/2023,18:14:34,1617
6822-50566484-f5bb-49a7-82e1-10afa095e4ea,38,33,navy,one,a,a,8,5/1/2023,18:14:36,1457
6822-50566484-f5bb-49a7-82e1-10afa095e4ea,38,34,gun,guard,a,a,3,5/1/2023,18:14:39,2143
6822-50566484-f5bb-49a7-82e1-10afa095e4ea,38,35,bingo,game,a,a,3,5/1/2023,18:14:40,1392
1451-772fec55-68b5-4984-862e-750a34599571,119,0,marble,arch,an,a,2,5/1/2023,19:47:29,9170
1451-772fec55-68b5-4984-862e-750a34599571,119,1,toy,train,a,a,3,5/1/2023,19:47:34,4171
1451-772fec55-68b5-4984-862e-750a34599571,119,2,dead,puppy,a,a,2,5/1/2023,19:47:40,5821
1451-772fec55-68b5-4984-862e-750a34599571,119,3,red,clay,NA,NA,3,5/1/2023,19:47:45,4140
1451-772fec55-68b5-4984-862e-750a34599571,119,4,prawn,ball,a,a,3,5/1/2023,19:48:04,18580
1451-772fec55-68b5-4984-862e-750a34599571,119,5,silky,blanket,a,a,3,5/1/2023,19:48:08,3820
1451-772fec55-68b5-4984-862e-750a34599571,119,6,tv,head,a,a,2,5/1/2023,19:48:15,6515
1451-772fec55-68b5-4984-862e-750a34599571,119,7,door,valve,a,a,3,5/1/2023,19:48:39,23820
1451-772fec55-68b5-4984-862e-750a34599571,119,8,plant,root,a,a,5,5/1/2023,19:48:51,11365
1451-772fec55-68b5-4984-862e-750a34599571,119,9,orangutan,elephant,an,an,1,5/1/2023,19:48:59,8292
1451-772fec55-68b5-4984-862e-750a34599571,119,10,mommy,fish,a,a,3,5/1/2023,19:49:05,5180
1451-772fec55-68b5-4984-862e-750a34599571,119,11,pirate,flag,a,a,2,5/1/2023,19:49:13,7181
1451-772fec55-68b5-4984-862e-750a34599571,119,12,broken,balloon,a,a,3,5/1/2023,19:49:19,6395
1451-772fec55-68b5-4984-862e-750a34599571,119,13,bright,orange,an,a,3,5/1/2023,19:49:23,2853
1451-772fec55-68b5-4984-862e-750a34599571,119,14,pumpkin,laugh,a,a,2,5/1/2023,19:49:41,17684
1451-772fec55-68b5-4984-862e-750a34599571,119,15,screen,hedge,a,a,3,5/1/2023,19:49:51,9934
1451-772fec55-68b5-4984-862e-750a34599571,119,16,red,scissors,NA,NA,3,5/1/2023,19:49:54,2836
1451-772fec55-68b5-4984-862e-750a34599571,119,17,egg,soup,NA,NA,3,5/1/2023,19:49:58,3343
1451-772fec55-68b5-4984-862e-750a34599571,119,18,fish,aquarium,an,a,5,5/1/2023,19:50:05,6709
1451-772fec55-68b5-4984-862e-750a34599571,119,19,clothes,basket,a,a,3,5/1/2023,19:50:14,8253
1451-772fec55-68b5-4984-862e-750a34599571,119,20,garden,tool,a,a,3,5/1/2023,19:50:18,3861
1451-772fec55-68b5-4984-862e-750a34599571,119,21,boy,home,a,a,3,5/1/2023,19:50:23,4461
1451-772fec55-68b5-4984-862e-750a34599571,119,22,sleep,walk,a,a,2,5/1/2023,19:50:27,3427
1451-772fec55-68b5-4984-862e-750a34599571,119,23,blood,cell,a,a,3,5/1/2023,19:50:32,5131
1451-772fec55-68b5-4984-862e-750a34599571,119,24,toast,toast,NA,NA,8,5/1/2023,19:50:35,2751
1451-772fec55-68b5-4984-862e-750a34599571,119,25,baby,ostrich,an,a,3,5/1/2023,19:50:39,2908
1451-772fec55-68b5-4984-862e-750a34599571,119,26,dinner,table,a,a,3,5/1/2023,19:50:43,4205
1451-772fec55-68b5-4984-862e-750a34599571,119,27,block,blockage,a,a,2,5/1/2023,19:50:52,8388
1451-772fec55-68b5-4984-862e-750a34599571,119,28,NA,NA,NA,NA,5,5/1/2023,19:50:55,2165
1451-772fec55-68b5-4984-862e-750a34599571,119,29,bug,piece,a,a,3,5/1/2023,19:51:06,10954
1451-772fec55-68b5-4984-862e-750a34599571,119,30,mama,run,a,a,3,5/1/2023,19:51:14,7884
1451-772fec55-68b5-4984-862e-750a34599571,119,31,purple,noodle,a,a,2,5/1/2023,19:51:21,6669
1451-772fec55-68b5-4984-862e-750a34599571,119,32,cast,iron,an,a,3,5/1/2023,19:51:31,9470
1451-772fec55-68b5-4984-862e-750a34599571,119,33,cry,baby,a,a,4,5/1/2023,19:51:38,6093
1451-772fec55-68b5-4984-862e-750a34599571,119,34,baby,sheep,a,a,3,5/1/2023,19:51:42,3884
1451-772fec55-68b5-4984-862e-750a34599571,119,35,green,room,a,a,3,5/1/2023,19:51:48,5676
3702-acf4e74b-4881-43f4-92ff-44a8583a9fe8,105,0,pond,bank,a,a,1,5/1/2023,17:59:57,11076
3702-acf4e74b-4881-43f4-92ff-44a8583a9fe8,105,1,grey,boot,a,a,3,5/1/2023,18:00:00,2435
3702-acf4e74b-4881-43f4-92ff-44a8583a9fe8,105,2,pink,yogurt,NA,NA,3,5/1/2023,18:00:03,2123
3702-acf4e74b-4881-43f4-92ff-44a8583a9fe8,105,3,pirate,movie,a,a,3,5/1/2023,18:00:06,2330
3702-acf4e74b-4881-43f4-92ff-44a8583a9fe8,105,4,pink,shoe,a,a,3,5/1/2023,18:00:08,2143
3702-acf4e74b-4881-43f4-92ff-44a8583a9fe8,105,5,wet,pile,a,a,3,5/1/2023,18:00:12,3248
3702-acf4e74b-4881-43f4-92ff-44a8583a9fe8,105,6,diner,honey,NA,NA,1,5/1/2023,18:00:15,2940
3702-acf4e74b-4881-43f4-92ff-44a8583a9fe8,105,7,wooden,hammer,a,a,3,5/1/2023,18:00:19,3575
3702-acf4e74b-4881-43f4-92ff-44a8583a9fe8,105,8,day,color,a,a,8,5/1/2023,18:00:25,5686
3702-acf4e74b-4881-43f4-92ff-44a8583a9fe8,105,9,family,tie,a,a,8,5/1/2023,18:00:28,2694
3702-acf4e74b-4881-43f4-92ff-44a8583a9fe8,105,10,water,mommy,a,a,8,5/1/2023,18:00:33,4117
3702-acf4e74b-4881-43f4-92ff-44a8583a9fe8,105,11,pet,toy,a,a,3,5/1/2023,18:00:37,3357
3702-acf4e74b-4881-43f4-92ff-44a8583a9fe8,105,12,frozen,bean,a,a,2,5/1/2023,18:00:41,3744
3702-acf4e74b-4881-43f4-92ff-44a8583a9fe8,105,13,fat,elephant,an,a,3,5/1/2023,18:00:44,2428
3702-acf4e74b-4881-43f4-92ff-44a8583a9fe8,105,14,dogs,biscuit,a,a,3,5/1/2023,18:00:48,3529
3702-acf4e74b-4881-43f4-92ff-44a8583a9fe8,105,15,hot,coffee,NA,NA,5,5/1/2023,18:00:51,3072
3702-acf4e74b-4881-43f4-92ff-44a8583a9fe8,105,16,chocolate,ice,NA,NA,3,5/1/2023,18:00:57,5329
3702-acf4e74b-4881-43f4-92ff-44a8583a9fe8,105,17,purple,lipstick,NA,NA,2,5/1/2023,18:01:00,2985
3702-acf4e74b-4881-43f4-92ff-44a8583a9fe8,105,18,stew,pot,a,a,3,5/1/2023,18:01:07,6734
3702-acf4e74b-4881-43f4-92ff-44a8583a9fe8,105,19,brown,table,a,a,4,5/1/2023,18:01:10,2301
3702-acf4e74b-4881-43f4-92ff-44a8583a9fe8,105,20,jellyfish,family,a,a,2,5/1/2023,18:01:14,3812
3702-acf4e74b-4881-43f4-92ff-44a8583a9fe8,105,21,NA,NA,NA,NA,5,5/1/2023,18:01:17,1737
3702-acf4e74b-4881-43f4-92ff-44a8583a9fe8,105,22,sleeping,bag,a,a,3,5/1/2023,18:01:21,4312
3702-acf4e74b-4881-43f4-92ff-44a8583a9fe8,105,23,hot,piggy,a,a,1,5/1/2023,18:01:24,2650
3702-acf4e74b-4881-43f4-92ff-44a8583a9fe8,105,24,multicolored,sign,a,a,3,5/1/2023,18:01:27,2564
3702-acf4e74b-4881-43f4-92ff-44a8583a9fe8,105,25,dog,poop,NA,NA,3,5/1/2023,18:01:30,2773
3702-acf4e74b-4881-43f4-92ff-44a8583a9fe8,105,26,farm,movie,a,a,2,5/1/2023,18:01:35,4347
3702-acf4e74b-4881-43f4-92ff-44a8583a9fe8,105,27,obituary,obituary,an,an,8,5/1/2023,18:01:38,2469
3702-acf4e74b-4881-43f4-92ff-44a8583a9fe8,105,28,green,hat,a,a,2,5/1/2023,18:01:43,4367
3702-acf4e74b-4881-43f4-92ff-44a8583a9fe8,105,29,green,flag,a,a,3,5/1/2023,18:01:46,2746
3702-acf4e74b-4881-43f4-92ff-44a8583a9fe8,105,30,marker,paper,a,a,2,5/1/2023,18:01:50,3471
3702-acf4e74b-4881-43f4-92ff-44a8583a9fe8,105,31,navy,coat,a,a,3,5/1/2023,18:01:53,2831
3702-acf4e74b-4881-43f4-92ff-44a8583a9fe8,105,32,butter,puddle,a,a,1,5/1/2023,18:01:57,3239
3702-acf4e74b-4881-43f4-92ff-44a8583a9fe8,105,33,microwave,lid,a,a,3,5/1/2023,18:02:01,3613
3702-acf4e74b-4881-43f4-92ff-44a8583a9fe8,105,34,flat,roof,a,a,5,5/1/2023,18:02:05,3608
3702-acf4e74b-4881-43f4-92ff-44a8583a9fe8,105,35,wet,honey,NA,NA,7,5/1/2023,18:02:09,3964
4719-b64139cb-1404-41f1-b7af-b1f7c9e98d13,96,0,dot,girl,a,a,8,5/1/2023,19:36:59,5671
4719-b64139cb-1404-41f1-b7af-b1f7c9e98d13,96,1,hand,corner,a,a,8,5/1/2023,19:37:09,9196
4719-b64139cb-1404-41f1-b7af-b1f7c9e98d13,96,2,green,park,a,a,5,5/1/2023,19:37:12,2696
4719-b64139cb-1404-41f1-b7af-b1f7c9e98d13,96,3,insect,block,a,an,8,5/1/2023,19:37:26,13964
4719-b64139cb-1404-41f1-b7af-b1f7c9e98d13,96,4,dress,ballet,a,a,4,5/1/2023,19:37:31,4353
4719-b64139cb-1404-41f1-b7af-b1f7c9e98d13,96,5,top,grill,a,a,4,5/1/2023,19:37:34,2330
4719-b64139cb-1404-41f1-b7af-b1f7c9e98d13,96,6,red,stair,a,a,2,5/1/2023,19:37:36,2278
4719-b64139cb-1404-41f1-b7af-b1f7c9e98d13,96,7,apple,apple,an,an,8,5/1/2023,19:37:39,1911
4719-b64139cb-1404-41f1-b7af-b1f7c9e98d13,96,8,path,hedge,a,a,4,5/1/2023,19:37:42,2662
4719-b64139cb-1404-41f1-b7af-b1f7c9e98d13,96,9,plastic,track,a,a,2,5/1/2023,19:37:45,2484
4719-b64139cb-1404-41f1-b7af-b1f7c9e98d13,96,10,mommy,run,a,a,8,5/1/2023,19:37:47,2307
4719-b64139cb-1404-41f1-b7af-b1f7c9e98d13,96,11,dirty,banana,a,a,4,5/1/2023,19:37:51,3751
4719-b64139cb-1404-41f1-b7af-b1f7c9e98d13,96,12,alphabet,block,a,an,3,5/1/2023,19:37:55,2975
4719-b64139cb-1404-41f1-b7af-b1f7c9e98d13,96,13,baby,parrot,a,a,3,5/1/2023,19:37:58,2414
4719-b64139cb-1404-41f1-b7af-b1f7c9e98d13,96,14,train,car,a,a,3,5/1/2023,19:38:00,2301
4719-b64139cb-1404-41f1-b7af-b1f7c9e98d13,96,15,stove,cast,a,a,2,5/1/2023,19:38:06,5052
4719-b64139cb-1404-41f1-b7af-b1f7c9e98d13,96,16,purple,snail,a,a,2,5/1/2023,19:38:09,2556
4719-b64139cb-1404-41f1-b7af-b1f7c9e98d13,96,17,green,zebra,a,a,1,5/1/2023,19:38:12,3032
4719-b64139cb-1404-41f1-b7af-b1f7c9e98d13,96,18,horse,manure,NA,NA,3,5/1/2023,19:38:15,2634
4719-b64139cb-1404-41f1-b7af-b1f7c9e98d13,96,19,yellow,cake,a,a,3,5/1/2023,19:38:19,3008
4719-b64139cb-1404-41f1-b7af-b1f7c9e98d13,96,20,apple,school,a,an,8,5/1/2023,19:38:22,2766
4719-b64139cb-1404-41f1-b7af-b1f7c9e98d13,96,21,music,book,a,a,3,5/1/2023,19:38:25,2607
4719-b64139cb-1404-41f1-b7af-b1f7c9e98d13,96,22,leg,pork,NA,NA,3,5/1/2023,19:38:29,3479
4719-b64139cb-1404-41f1-b7af-b1f7c9e98d13,96,23,carrot,cake,a,a,3,5/1/2023,19:38:31,2023
4719-b64139cb-1404-41f1-b7af-b1f7c9e98d13,96,24,rolling,pin,a,a,2,5/1/2023,19:38:34,2844
4719-b64139cb-1404-41f1-b7af-b1f7c9e98d13,96,25,yellow,top,a,a,3,5/1/2023,19:38:37,2014
4719-b64139cb-1404-41f1-b7af-b1f7c9e98d13,96,26,giant,frog,a,a,2,5/1/2023,19:38:40,2539
4719-b64139cb-1404-41f1-b7af-b1f7c9e98d13,96,27,pioneer,ball,a,a,8,5/1/2023,19:38:54,13579
4719-b64139cb-1404-41f1-b7af-b1f7c9e98d13,96,28,wooden,stick,a,a,6,5/1/2023,19:38:58,3766
4719-b64139cb-1404-41f1-b7af-b1f7c9e98d13,96,29,dark,flower,a,a,4,5/1/2023,19:39:01,2501
4719-b64139cb-1404-41f1-b7af-b1f7c9e98d13,96,30,NA,NA,NA,NA,5,5/1/2023,19:39:03,1539
4719-b64139cb-1404-41f1-b7af-b1f7c9e98d13,96,31,home,county,a,a,3,5/1/2023,19:39:08,4446
4719-b64139cb-1404-41f1-b7af-b1f7c9e98d13,96,32,green,book,a,a,3,5/1/2023,19:39:11,2477
4719-b64139cb-1404-41f1-b7af-b1f7c9e98d13,96,33,mommy,mouth,a,a,4,5/1/2023,19:39:15,3916
4719-b64139cb-1404-41f1-b7af-b1f7c9e98d13,96,34,record,gate,a,a,2,5/1/2023,19:39:19,3758
4719-b64139cb-1404-41f1-b7af-b1f7c9e98d13,96,35,blonde,one,a,a,8,5/1/2023,19:39:24,4052
8570-624d618e-954c-4f07-acd5-d8ef7a11151e,19,0,dirty,cave,a,a,5,5/1/2023,17:18:59,8859
8570-624d618e-954c-4f07-acd5-d8ef7a11151e,19,1,pink,skirt,a,a,3,5/1/2023,17:19:03,2610
8570-624d618e-954c-4f07-acd5-d8ef7a11151e,19,2,fat,mama,a,a,3,5/1/2023,17:19:06,3359
8570-624d618e-954c-4f07-acd5-d8ef7a11151e,19,3,green,dog,a,a,2,5/1/2023,17:19:11,4428
8570-624d618e-954c-4f07-acd5-d8ef7a11151e,19,4,cookie,bake,a,a,3,5/1/2023,17:19:23,11095
8570-624d618e-954c-4f07-acd5-d8ef7a11151e,19,5,alphabet,puzzle,a,an,3,5/1/2023,17:19:27,3726
8570-624d618e-954c-4f07-acd5-d8ef7a11151e,19,6,outside,mama,a,an,3,5/1/2023,17:19:32,4487
8570-624d618e-954c-4f07-acd5-d8ef7a11151e,19,7,garden,shed,a,a,5,5/1/2023,17:19:36,3656
8570-624d618e-954c-4f07-acd5-d8ef7a11151e,19,8,night,crawler,a,a,3,5/1/2023,17:19:41,5037
8570-624d618e-954c-4f07-acd5-d8ef7a11151e,19,9,ocean,honey,NA,NA,8,5/1/2023,17:19:45,2997
8570-624d618e-954c-4f07-acd5-d8ef7a11151e,19,10,orange,pop,a,an,3,5/1/2023,17:19:49,3698
8570-624d618e-954c-4f07-acd5-d8ef7a11151e,19,11,pop,corn,a,a,3,5/1/2023,17:19:55,5633
8570-624d618e-954c-4f07-acd5-d8ef7a11151e,19,12,chip,shop,a,a,8,5/1/2023,17:20:04,9080
8570-624d618e-954c-4f07-acd5-d8ef7a11151e,19,13,ox,tail,a,an,3,5/1/2023,17:20:10,5384
8570-624d618e-954c-4f07-acd5-d8ef7a11151e,19,14,pound,hammer,a,a,5,5/1/2023,17:20:38,27682
8570-624d618e-954c-4f07-acd5-d8ef7a11151e,19,15,heart,attack,an,a,3,5/1/2023,17:20:42,3259
8570-624d618e-954c-4f07-acd5-d8ef7a11151e,19,16,brown,shoe,a,a,5,5/1/2023,17:20:45,3025
8570-624d618e-954c-4f07-acd5-d8ef7a11151e,19,17,snap,side,a,a,8,5/1/2023,17:20:50,4007
8570-624d618e-954c-4f07-acd5-d8ef7a11151e,19,18,jaw,bone,a,a,3,5/1/2023,17:20:54,3918
8570-624d618e-954c-4f07-acd5-d8ef7a11151e,19,19,red,lobster,a,a,6,5/1/2023,17:21:00,4942
8570-624d618e-954c-4f07-acd5-d8ef7a11151e,19,20,NA,NA,NA,NA,5,5/1/2023,17:21:02,2192
8570-624d618e-954c-4f07-acd5-d8ef7a11151e,19,21,cracker,box,a,a,3,5/1/2023,17:21:06,3515
8570-624d618e-954c-4f07-acd5-d8ef7a11151e,19,22,green,thumb,a,a,2,5/1/2023,17:21:11,4707
8570-624d618e-954c-4f07-acd5-d8ef7a11151e,19,23,wig,hair,NA,NA,3,5/1/2023,17:21:15,3526
8570-624d618e-954c-4f07-acd5-d8ef7a11151e,19,24,caramel,sauce,NA,NA,3,5/1/2023,17:21:18,2873
8570-624d618e-954c-4f07-acd5-d8ef7a11151e,19,25,person,doggie,a,a,8,5/1/2023,17:21:36,17432
8570-624d618e-954c-4f07-acd5-d8ef7a11151e,19,26,countryside,breathing,NA,NA,8,5/1/2023,17:21:42,5197
8570-624d618e-954c-4f07-acd5-d8ef7a11151e,19,27,curly,head,a,a,3,5/1/2023,17:21:49,6313
8570-624d618e-954c-4f07-acd5-d8ef7a11151e,19,28,wet,grandpa,a,a,3,5/1/2023,17:21:57,7576
8570-624d618e-954c-4f07-acd5-d8ef7a11151e,19,29,slope,test,a,a,3,5/1/2023,17:22:43,45716
8570-624d618e-954c-4f07-acd5-d8ef7a11151e,19,30,baby,panda,a,a,5,5/1/2023,17:22:55,11953
8570-624d618e-954c-4f07-acd5-d8ef7a11151e,19,31,gas,fire,NA,NA,4,5/1/2023,17:23:04,8122
8570-624d618e-954c-4f07-acd5-d8ef7a11151e,19,32,boy,tooth,a,a,4,5/1/2023,17:23:08,3781
8570-624d618e-954c-4f07-acd5-d8ef7a11151e,19,33,bleeding,chocolate,NA,NA,8,5/1/2023,17:23:27,18747
8570-624d618e-954c-4f07-acd5-d8ef7a11151e,19,34,slide,concrete,NA,NA,8,5/1/2023,17:23:36,8526
8570-624d618e-954c-4f07-acd5-d8ef7a11151e,19,35,yellow,handle,a,a,3,5/1/2023,17:23:41,4481
8971-5f57a036-c46a-4d9e-9302-aeef7fa1a946,153,0,marble,roll,a,a,2,5/1/2023,17:45:48,2864
8971-5f57a036-c46a-4d9e-9302-aeef7fa1a946,153,1,twin,deck,a,a,2,5/1/2023,17:45:50,1498
8971-5f57a036-c46a-4d9e-9302-aeef7fa1a946,153,2,NA,NA,NA,NA,5,5/1/2023,17:45:52,2047
8971-5f57a036-c46a-4d9e-9302-aeef7fa1a946,153,3,potty,sticker,a,a,2,5/1/2023,17:45:54,1947
8971-5f57a036-c46a-4d9e-9302-aeef7fa1a946,153,4,orange,plant,a,an,2,5/1/2023,17:45:58,2761
8971-5f57a036-c46a-4d9e-9302-aeef7fa1a946,153,5,butter,mouth,a,a,2,5/1/2023,17:46:00,1657
8971-5f57a036-c46a-4d9e-9302-aeef7fa1a946,153,6,coffee,machine,a,a,3,5/1/2023,17:46:03,2513
8971-5f57a036-c46a-4d9e-9302-aeef7fa1a946,153,7,jelly,container,a,a,2,5/1/2023,17:46:05,1834
8971-5f57a036-c46a-4d9e-9302-aeef7fa1a946,153,8,round,pumpkin,a,a,5,5/1/2023,17:46:12,6939
8971-5f57a036-c46a-4d9e-9302-aeef7fa1a946,153,9,body,puppet,a,a,3,5/1/2023,17:46:15,2832
8971-5f57a036-c46a-4d9e-9302-aeef7fa1a946,153,10,daddy,waffle,a,a,1,5/1/2023,17:46:18,2156
8971-5f57a036-c46a-4d9e-9302-aeef7fa1a946,153,11,meow,baby,a,a,8,5/1/2023,17:46:21,2645
8971-5f57a036-c46a-4d9e-9302-aeef7fa1a946,153,12,giant,dump,a,a,3,5/1/2023,17:46:24,2075
8971-5f57a036-c46a-4d9e-9302-aeef7fa1a946,153,13,lobster,hat,a,a,2,5/1/2023,17:46:26,2216
8971-5f57a036-c46a-4d9e-9302-aeef7fa1a946,153,14,outside,world,a,an,6,5/1/2023,17:46:31,3967
8971-5f57a036-c46a-4d9e-9302-aeef7fa1a946,153,15,yellow,chicken,a,a,5,5/1/2023,17:46:34,2969
8971-5f57a036-c46a-4d9e-9302-aeef7fa1a946,153,16,bean,ball,a,a,2,5/1/2023,17:46:36,2040
8971-5f57a036-c46a-4d9e-9302-aeef7fa1a946,153,17,red,ice,NA,NA,2,5/1/2023,17:46:39,1711
8971-5f57a036-c46a-4d9e-9302-aeef7fa1a946,153,18,farm,shop,a,a,2,5/1/2023,17:46:41,1937
8971-5f57a036-c46a-4d9e-9302-aeef7fa1a946,153,19,garlic,salt,NA,NA,2,5/1/2023,17:46:43,1656
8971-5f57a036-c46a-4d9e-9302-aeef7fa1a946,153,20,pink,honey,NA,NA,2,5/1/2023,17:46:45,1448
8971-5f57a036-c46a-4d9e-9302-aeef7fa1a946,153,21,weenie,firefly,a,a,1,5/1/2023,17:46:50,4752
8971-5f57a036-c46a-4d9e-9302-aeef7fa1a946,153,22,fat,tummy,a,a,3,5/1/2023,17:46:55,4656
8971-5f57a036-c46a-4d9e-9302-aeef7fa1a946,153,23,cloud,smoke,NA,NA,3,5/1/2023,17:46:58,2625
8971-5f57a036-c46a-4d9e-9302-aeef7fa1a946,153,24,flop,flap,a,a,8,5/1/2023,17:47:02,3636
8971-5f57a036-c46a-4d9e-9302-aeef7fa1a946,153,25,car,boot,a,a,2,5/1/2023,17:47:05,2108
8971-5f57a036-c46a-4d9e-9302-aeef7fa1a946,153,26,couple,piece,a,a,2,5/1/2023,17:47:08,2491
8971-5f57a036-c46a-4d9e-9302-aeef7fa1a946,153,27,phone,line,a,a,2,5/1/2023,17:47:10,1591
8971-5f57a036-c46a-4d9e-9302-aeef7fa1a946,153,28,art,advisor,an,an,2,5/1/2023,17:47:12,1753
8971-5f57a036-c46a-4d9e-9302-aeef7fa1a946,153,29,top,molar,a,a,3,5/1/2023,17:47:15,2579
8971-5f57a036-c46a-4d9e-9302-aeef7fa1a946,153,30,wrapping,paper,a,a,3,5/1/2023,17:47:20,4822
8971-5f57a036-c46a-4d9e-9302-aeef7fa1a946,153,31,road,sign,a,a,3,5/1/2023,17:47:22,1867
8971-5f57a036-c46a-4d9e-9302-aeef7fa1a946,153,32,hand,drive,a,a,3,5/1/2023,17:47:26,3069
8971-5f57a036-c46a-4d9e-9302-aeef7fa1a946,153,33,bloody,nose,a,a,3,5/1/2023,17:48:34,67520
8971-5f57a036-c46a-4d9e-9302-aeef7fa1a946,153,34,baby,bottle,a,a,4,5/1/2023,17:48:38,3733
8971-5f57a036-c46a-4d9e-9302-aeef7fa1a946,153,35,yellow,lip,a,a,2,5/1/2023,17:48:40,2188
8139-1d45fcc8-db29-4824-b308-e4afde77f060,100,0,pinky,purple,NA,NA,8,5/8/2023,19:17:37,29963
8139-1d45fcc8-db29-4824-b308-e4afde77f060,100,1,red,climbing,NA,NA,8,5/8/2023,19:17:48,10834
8139-1d45fcc8-db29-4824-b308-e4afde77f060,100,2,pink,shorts,NA,NA,3,5/8/2023,19:17:57,8194
8139-1d45fcc8-db29-4824-b308-e4afde77f060,100,3,fire,alarm,an,a,4,5/8/2023,19:18:05,7589
8139-1d45fcc8-db29-4824-b308-e4afde77f060,100,4,north,pole,a,a,2,5/8/2023,19:18:17,11443
8139-1d45fcc8-db29-4824-b308-e4afde77f060,100,5,NA,NA,NA,NA,5,5/8/2023,19:18:23,6540
8139-1d45fcc8-db29-4824-b308-e4afde77f060,100,6,dog,mama,a,a,3,5/8/2023,19:18:32,7875
8139-1d45fcc8-db29-4824-b308-e4afde77f060,100,7,wiggle,dancing,NA,NA,2,5/8/2023,19:18:40,8281
8139-1d45fcc8-db29-4824-b308-e4afde77f060,100,8,examination,board,a,an,3,5/8/2023,19:18:51,9762
8139-1d45fcc8-db29-4824-b308-e4afde77f060,100,9,bull,ant,an,a,2,5/8/2023,19:19:04,13286
8139-1d45fcc8-db29-4824-b308-e4afde77f060,100,10,brown,cap,a,a,3,5/8/2023,19:19:10,5453
8139-1d45fcc8-db29-4824-b308-e4afde77f060,100,11,kid,ride,a,a,3,5/8/2023,19:19:14,3784
8139-1d45fcc8-db29-4824-b308-e4afde77f060,100,12,yellow,ball,a,a,3,5/8/2023,19:19:38,22794
8139-1d45fcc8-db29-4824-b308-e4afde77f060,100,13,man,book,a,a,2,5/8/2023,19:19:52,14037
8139-1d45fcc8-db29-4824-b308-e4afde77f060,100,14,door,bell,a,a,3,5/8/2023,19:20:06,14019
8139-1d45fcc8-db29-4824-b308-e4afde77f060,100,15,dart,board,a,a,3,5/8/2023,19:20:11,4497
8139-1d45fcc8-db29-4824-b308-e4afde77f060,100,16,edge,honey,NA,NA,8,5/8/2023,19:20:21,9693
8139-1d45fcc8-db29-4824-b308-e4afde77f060,100,17,chief,art,NA,NA,1,5/8/2023,19:20:34,12165
8139-1d45fcc8-db29-4824-b308-e4afde77f060,100,18,colored,one,a,a,3,5/8/2023,19:20:42,8052
8139-1d45fcc8-db29-4824-b308-e4afde77f060,100,19,puppet,baby,a,a,2,5/8/2023,19:20:51,8365
8139-1d45fcc8-db29-4824-b308-e4afde77f060,100,20,dinner,break,a,a,3,5/8/2023,19:21:01,9349
8139-1d45fcc8-db29-4824-b308-e4afde77f060,100,21,pie,chip,a,a,2,5/8/2023,19:21:19,17715
8139-1d45fcc8-db29-4824-b308-e4afde77f060,100,22,granite,horse,a,a,2,5/8/2023,19:21:29,9388
8139-1d45fcc8-db29-4824-b308-e4afde77f060,100,23,chest,plate,a,a,2,5/8/2023,19:21:40,10630
8139-1d45fcc8-db29-4824-b308-e4afde77f060,100,24,chip,dot,a,a,2,5/8/2023,19:21:50,9809
8139-1d45fcc8-db29-4824-b308-e4afde77f060,100,25,record,case,a,a,3,5/8/2023,19:22:02,11947
8139-1d45fcc8-db29-4824-b308-e4afde77f060,100,26,whale,hat,a,a,2,5/8/2023,19:22:17,13813
8139-1d45fcc8-db29-4824-b308-e4afde77f060,100,27,mommy,daddy,a,a,3,5/8/2023,19:22:30,12725
8139-1d45fcc8-db29-4824-b308-e4afde77f060,100,28,dinosaur,skull,a,a,2,5/8/2023,19:22:42,11326
8139-1d45fcc8-db29-4824-b308-e4afde77f060,100,29,tree,farm,a,a,2,5/8/2023,19:22:54,12514
8139-1d45fcc8-db29-4824-b308-e4afde77f060,100,30,orange,kitty,a,an,3,5/8/2023,19:23:03,8220
8139-1d45fcc8-db29-4824-b308-e4afde77f060,100,31,clown,nose,a,a,3,5/8/2023,19:23:17,13268
8139-1d45fcc8-db29-4824-b308-e4afde77f060,100,32,spoonful,mama,a,a,8,5/8/2023,19:23:26,8982
8139-1d45fcc8-db29-4824-b308-e4afde77f060,100,33,potty,break,a,a,3,5/8/2023,19:23:42,15781
8139-1d45fcc8-db29-4824-b308-e4afde77f060,100,34,bread,basket,a,a,3,5/8/2023,19:23:51,8524
8139-1d45fcc8-db29-4824-b308-e4afde77f060,100,35,giraffe,leg,a,a,2,5/8/2023,19:23:56,4757
0041-d82defd2-389c-4b21-905c-f51caba8579e,45,0,bear,suit,a,a,8,5/8/2023,19:01:42,2802
0041-d82defd2-389c-4b21-905c-f51caba8579e,45,1,fat,squirrel,a,a,3,5/8/2023,19:01:46,2701
0041-d82defd2-389c-4b21-905c-f51caba8579e,45,2,fish,guts,NA,NA,3,5/8/2023,19:01:56,10398
0041-d82defd2-389c-4b21-905c-f51caba8579e,45,3,racing,pigeon,a,a,8,5/8/2023,19:02:00,3677
0041-d82defd2-389c-4b21-905c-f51caba8579e,45,4,bubble,soap,NA,NA,5,5/8/2023,19:02:05,3696
0041-d82defd2-389c-4b21-905c-f51caba8579e,45,5,green,person,a,a,8,5/8/2023,19:02:08,2677
0041-d82defd2-389c-4b21-905c-f51caba8579e,45,6,fuzzy,creature,a,a,5,5/8/2023,19:02:10,1831
0041-d82defd2-389c-4b21-905c-f51caba8579e,45,7,NA,NA,NA,NA,5,5/8/2023,19:02:12,1817
0041-d82defd2-389c-4b21-905c-f51caba8579e,45,8,basket,ball,a,a,5,5/8/2023,19:02:16,3712
0041-d82defd2-389c-4b21-905c-f51caba8579e,45,9,red,wagon,a,a,5,5/8/2023,19:02:18,1384
0041-d82defd2-389c-4b21-905c-f51caba8579e,45,10,ogre,wife,a,an,8,5/8/2023,19:02:20,1895
0041-d82defd2-389c-4b21-905c-f51caba8579e,45,11,pink,mom,a,a,8,5/8/2023,19:02:22,1729
0041-d82defd2-389c-4b21-905c-f51caba8579e,45,12,matchbox,car,a,a,5,5/8/2023,19:02:25,1899
0041-d82defd2-389c-4b21-905c-f51caba8579e,45,13,jungle,ride,a,a,2,5/8/2023,19:02:29,3369
0041-d82defd2-389c-4b21-905c-f51caba8579e,45,14,octopus,show,a,an,8,5/8/2023,19:02:31,2088
0041-d82defd2-389c-4b21-905c-f51caba8579e,45,15,kitchen,net,a,a,8,5/8/2023,19:02:33,1550
0041-d82defd2-389c-4b21-905c-f51caba8579e,45,16,quiz,game,a,a,3,5/8/2023,19:02:35,2084
0041-d82defd2-389c-4b21-905c-f51caba8579e,45,17,meat,horse,a,a,8,5/8/2023,19:02:38,2500
0041-d82defd2-389c-4b21-905c-f51caba8579e,45,18,colored,green,NA,NA,3,5/8/2023,19:02:41,2358
0041-d82defd2-389c-4b21-905c-f51caba8579e,45,19,gold,ring,a,a,5,5/8/2023,19:02:44,2766
0041-d82defd2-389c-4b21-905c-f51caba8579e,45,20,paint,drip,a,a,5,5/8/2023,19:02:49,3789
0041-d82defd2-389c-4b21-905c-f51caba8579e,45,21,wet,slab,a,a,3,5/8/2023,19:03:07,17615
0041-d82defd2-389c-4b21-905c-f51caba8579e,45,22,green,blanket,a,a,3,5/8/2023,19:03:33,25881
0041-d82defd2-389c-4b21-905c-f51caba8579e,45,23,oil,filter,a,an,5,5/8/2023,19:03:35,1840
0041-d82defd2-389c-4b21-905c-f51caba8579e,45,24,tan,car,a,a,3,5/8/2023,19:03:39,3421
0041-d82defd2-389c-4b21-905c-f51caba8579e,45,25,green,grasshopper,a,a,6,5/8/2023,19:03:47,7334
0041-d82defd2-389c-4b21-905c-f51caba8579e,45,26,cooler,outfit,an,a,8,5/8/2023,19:04:02,15226
0041-d82defd2-389c-4b21-905c-f51caba8579e,45,27,bowling,ball,a,a,5,5/8/2023,19:04:30,27580
0041-d82defd2-389c-4b21-905c-f51caba8579e,45,28,outside,shell,a,an,8,5/8/2023,19:04:34,3223
0041-d82defd2-389c-4b21-905c-f51caba8579e,45,29,hot,tap,a,a,5,5/8/2023,19:04:38,3295
0041-d82defd2-389c-4b21-905c-f51caba8579e,45,30,onion,ring,a,an,3,5/8/2023,19:04:41,2622
0041-d82defd2-389c-4b21-905c-f51caba8579e,45,31,petrol,account,an,a,2,5/8/2023,19:05:23,42287
0041-d82defd2-389c-4b21-905c-f51caba8579e,45,32,thistle,patch,a,a,2,5/8/2023,19:05:26,2113
0041-d82defd2-389c-4b21-905c-f51caba8579e,45,33,dirty,mommy,a,a,2,5/8/2023,19:05:30,3520
0041-d82defd2-389c-4b21-905c-f51caba8579e,45,34,red,horn,a,a,8,5/8/2023,19:05:33,2585
0041-d82defd2-389c-4b21-905c-f51caba8579e,45,35,panel,radiator,a,a,8,5/8/2023,19:05:36,2339
1987-88d7b1d3-9d3d-4276-94d5-a7229ef3e6e8,140,0,fruit,drop,a,a,2,5/8/2023,20:27:41,10117
1987-88d7b1d3-9d3d-4276-94d5-a7229ef3e6e8,140,1,write,write,a,a,8,5/8/2023,20:27:43,2139
1987-88d7b1d3-9d3d-4276-94d5-a7229ef3e6e8,140,2,bright,picture,a,a,2,5/8/2023,20:27:49,5159
1987-88d7b1d3-9d3d-4276-94d5-a7229ef3e6e8,140,3,picture,book,a,a,2,5/8/2023,20:27:53,3237
1987-88d7b1d3-9d3d-4276-94d5-a7229ef3e6e8,140,4,step,stool,a,a,3,5/8/2023,20:27:56,2940
1987-88d7b1d3-9d3d-4276-94d5-a7229ef3e6e8,140,5,tree,branch,a,a,4,5/8/2023,20:28:01,4706
1987-88d7b1d3-9d3d-4276-94d5-a7229ef3e6e8,140,6,apple,cookie,a,an,1,5/8/2023,20:28:10,8516
1987-88d7b1d3-9d3d-4276-94d5-a7229ef3e6e8,140,7,bar,staff,NA,NA,2,5/8/2023,20:28:18,7011
1987-88d7b1d3-9d3d-4276-94d5-a7229ef3e6e8,140,8,dust,mom,a,a,8,5/8/2023,20:28:21,2773
1987-88d7b1d3-9d3d-4276-94d5-a7229ef3e6e8,140,9,mama,mop,a,a,8,5/8/2023,20:28:24,3350
1987-88d7b1d3-9d3d-4276-94d5-a7229ef3e6e8,140,10,mirror,show,a,a,8,5/8/2023,20:28:29,3951
1987-88d7b1d3-9d3d-4276-94d5-a7229ef3e6e8,140,11,rock,crowd,a,a,1,5/8/2023,20:28:32,3018
1987-88d7b1d3-9d3d-4276-94d5-a7229ef3e6e8,140,12,dirty,bottom,a,a,2,5/8/2023,20:28:44,11460
1987-88d7b1d3-9d3d-4276-94d5-a7229ef3e6e8,140,13,boy,door,a,a,8,5/8/2023,20:28:50,4987
1987-88d7b1d3-9d3d-4276-94d5-a7229ef3e6e8,140,14,bug,lift,a,a,1,5/8/2023,20:28:53,3280
1987-88d7b1d3-9d3d-4276-94d5-a7229ef3e6e8,140,15,onion,gravy,NA,NA,2,5/8/2023,20:28:57,3192
1987-88d7b1d3-9d3d-4276-94d5-a7229ef3e6e8,140,16,hot,whisky,NA,NA,8,5/8/2023,20:29:02,4229
1987-88d7b1d3-9d3d-4276-94d5-a7229ef3e6e8,140,17,skirt,stain,a,a,3,5/8/2023,20:29:07,4746
1987-88d7b1d3-9d3d-4276-94d5-a7229ef3e6e8,140,18,sugar,fat,NA,NA,8,5/8/2023,20:29:11,4170
1987-88d7b1d3-9d3d-4276-94d5-a7229ef3e6e8,140,19,green,grape,a,a,5,5/8/2023,20:29:15,3517
1987-88d7b1d3-9d3d-4276-94d5-a7229ef3e6e8,140,20,till,eight,an,a,8,5/8/2023,20:29:20,4732
1987-88d7b1d3-9d3d-4276-94d5-a7229ef3e6e8,140,21,green,heart,a,a,8,5/8/2023,20:29:26,4993
1987-88d7b1d3-9d3d-4276-94d5-a7229ef3e6e8,140,22,top,honey,NA,NA,1,5/8/2023,20:29:30,3554
1987-88d7b1d3-9d3d-4276-94d5-a7229ef3e6e8,140,23,night,sky,a,a,4,5/8/2023,20:29:33,2699
1987-88d7b1d3-9d3d-4276-94d5-a7229ef3e6e8,140,24,NA,NA,NA,NA,5,5/8/2023,20:29:37,3252
1987-88d7b1d3-9d3d-4276-94d5-a7229ef3e6e8,140,25,solid,feed,NA,NA,2,5/8/2023,20:29:41,3659
1987-88d7b1d3-9d3d-4276-94d5-a7229ef3e6e8,140,26,slide,mama,a,a,8,5/8/2023,20:29:44,3225
1987-88d7b1d3-9d3d-4276-94d5-a7229ef3e6e8,140,27,sky,diving,NA,NA,3,5/8/2023,20:29:48,3434
1987-88d7b1d3-9d3d-4276-94d5-a7229ef3e6e8,140,28,pirate,hat,a,a,2,5/8/2023,20:29:52,3313
1987-88d7b1d3-9d3d-4276-94d5-a7229ef3e6e8,140,29,orange,structure,a,an,8,5/8/2023,20:29:56,3464
1987-88d7b1d3-9d3d-4276-94d5-a7229ef3e6e8,140,30,giant,pillow,a,a,2,5/8/2023,20:30:00,4304
1987-88d7b1d3-9d3d-4276-94d5-a7229ef3e6e8,140,31,green,side,a,a,2,5/8/2023,20:30:04,2662
1987-88d7b1d3-9d3d-4276-94d5-a7229ef3e6e8,140,32,green,shirt,a,a,2,5/8/2023,20:30:07,2812
1987-88d7b1d3-9d3d-4276-94d5-a7229ef3e6e8,140,33,wheat,one,a,a,8,5/8/2023,20:30:11,3296
1987-88d7b1d3-9d3d-4276-94d5-a7229ef3e6e8,140,34,pink,mirror,a,a,1,5/8/2023,20:30:15,3573
1987-88d7b1d3-9d3d-4276-94d5-a7229ef3e6e8,140,35,red,ear,an,a,2,5/8/2023,20:30:18,3366
2741-d4373578-cca4-4d3a-a624-6f1129a1f806,60,0,blowing,bubble,a,a,6,5/8/2023,20:06:36,3308
2741-d4373578-cca4-4d3a-a624-6f1129a1f806,60,1,grey,coat,a,a,3,5/8/2023,20:06:38,2170
2741-d4373578-cca4-4d3a-a624-6f1129a1f806,60,2,giant,octopus,an,a,2,5/8/2023,20:06:41,2347
2741-d4373578-cca4-4d3a-a624-6f1129a1f806,60,3,dwarf,tree,a,a,2,5/8/2023,20:06:45,3312
2741-d4373578-cca4-4d3a-a624-6f1129a1f806,60,4,bum,bum,a,a,8,5/8/2023,20:06:47,1595
2741-d4373578-cca4-4d3a-a624-6f1129a1f806,60,5,slippery,balloon,a,a,3,5/8/2023,20:06:49,2309
2741-d4373578-cca4-4d3a-a624-6f1129a1f806,60,6,baby,pumpkin,a,a,2,5/8/2023,20:06:52,2055
2741-d4373578-cca4-4d3a-a624-6f1129a1f806,60,7,jelly,sandwich,a,a,3,5/8/2023,20:06:54,2137
2741-d4373578-cca4-4d3a-a624-6f1129a1f806,60,8,NA,NA,NA,NA,5,5/8/2023,20:06:57,1901
2741-d4373578-cca4-4d3a-a624-6f1129a1f806,60,9,octopus,video,a,an,2,5/8/2023,20:07:00,2762
2741-d4373578-cca4-4d3a-a624-6f1129a1f806,60,10,hill,track,a,a,2,5/8/2023,20:07:02,2001
2741-d4373578-cca4-4d3a-a624-6f1129a1f806,60,11,red,eight,an,a,2,5/8/2023,20:07:09,6555
2741-d4373578-cca4-4d3a-a624-6f1129a1f806,60,12,yellow,boy,a,a,1,5/8/2023,20:07:12,2396
2741-d4373578-cca4-4d3a-a624-6f1129a1f806,60,13,fuzzy,pants,NA,NA,2,5/8/2023,20:07:14,1858
2741-d4373578-cca4-4d3a-a624-6f1129a1f806,60,14,spider,web,a,a,6,5/8/2023,20:07:18,2996
2741-d4373578-cca4-4d3a-a624-6f1129a1f806,60,15,sunlight,cloud,a,a,8,5/8/2023,20:07:23,5312
2741-d4373578-cca4-4d3a-a624-6f1129a1f806,60,16,length,mirror,a,a,2,5/8/2023,20:07:26,2170
2741-d4373578-cca4-4d3a-a624-6f1129a1f806,60,17,pony,ride,a,a,2,5/8/2023,20:07:28,2050
2741-d4373578-cca4-4d3a-a624-6f1129a1f806,60,18,card,table,a,a,3,5/8/2023,20:07:31,2485
2741-d4373578-cca4-4d3a-a624-6f1129a1f806,60,19,giant,bean,a,a,1,5/8/2023,20:07:36,4621
2741-d4373578-cca4-4d3a-a624-6f1129a1f806,60,20,song,book,a,a,3,5/8/2023,20:07:40,2995
2741-d4373578-cca4-4d3a-a624-6f1129a1f806,60,21,art,school,a,an,3,5/8/2023,20:07:42,1847
2741-d4373578-cca4-4d3a-a624-6f1129a1f806,60,22,head,office,an,a,3,5/8/2023,20:07:45,2172
2741-d4373578-cca4-4d3a-a624-6f1129a1f806,60,23,park,yogurt,NA,NA,8,5/8/2023,20:07:47,1849
2741-d4373578-cca4-4d3a-a624-6f1129a1f806,60,24,tire,mold,a,a,2,5/8/2023,20:07:51,3286
2741-d4373578-cca4-4d3a-a624-6f1129a1f806,60,25,bear,sleeping,NA,NA,3,5/8/2023,20:07:54,2779
2741-d4373578-cca4-4d3a-a624-6f1129a1f806,60,26,ice,cube,a,an,3,5/8/2023,20:07:57,2432
2741-d4373578-cca4-4d3a-a624-6f1129a1f806,60,27,dead,fly,a,a,2,5/8/2023,20:08:00,3204
2741-d4373578-cca4-4d3a-a624-6f1129a1f806,60,28,eye,fish,a,an,8,5/8/2023,20:08:03,2357
2741-d4373578-cca4-4d3a-a624-6f1129a1f806,60,29,deer,deer,a,a,8,5/8/2023,20:08:05,1849
2741-d4373578-cca4-4d3a-a624-6f1129a1f806,60,30,pan,pan,a,a,8,5/8/2023,20:08:07,1473
2741-d4373578-cca4-4d3a-a624-6f1129a1f806,60,31,light,till,a,a,1,5/8/2023,20:08:12,4779
2741-d4373578-cca4-4d3a-a624-6f1129a1f806,60,32,dog,sticker,a,a,3,5/8/2023,20:08:15,2150
2741-d4373578-cca4-4d3a-a624-6f1129a1f806,60,33,food,coloring,NA,NA,3,5/8/2023,20:08:18,2571
2741-d4373578-cca4-4d3a-a624-6f1129a1f806,60,34,inch,wall,a,an,1,5/8/2023,20:08:21,2981
2741-d4373578-cca4-4d3a-a624-6f1129a1f806,60,35,apple,farm,a,an,3,5/8/2023,20:08:24,2293
9224-d564b43d-d81b-4b6a-b650-680a0038c921,153,0,road,sign,a,a,5,5/8/2023,19:31:13,4113
9224-d564b43d-d81b-4b6a-b650-680a0038c921,153,1,bloody,nose,a,a,3,5/8/2023,19:31:16,3035
9224-d564b43d-d81b-4b6a-b650-680a0038c921,153,2,outside,world,a,an,5,5/8/2023,19:31:22,4982
9224-d564b43d-d81b-4b6a-b650-680a0038c921,153,3,fat,tummy,a,a,3,5/8/2023,19:31:25,2898
9224-d564b43d-d81b-4b6a-b650-680a0038c921,153,4,lobster,hat,a,a,2,5/8/2023,19:31:28,2803
9224-d564b43d-d81b-4b6a-b650-680a0038c921,153,5,meow,baby,a,a,8,5/8/2023,19:31:31,2586
9224-d564b43d-d81b-4b6a-b650-680a0038c921,153,6,coffee,machine,a,a,3,5/8/2023,19:31:34,2698
9224-d564b43d-d81b-4b6a-b650-680a0038c921,153,7,cloud,smoke,NA,NA,8,5/8/2023,19:31:39,4192
9224-d564b43d-d81b-4b6a-b650-680a0038c921,153,8,couple,piece,a,a,8,5/8/2023,19:31:42,3143
9224-d564b43d-d81b-4b6a-b650-680a0038c921,153,9,daddy,waffle,a,a,8,5/8/2023,19:31:45,1971
9224-d564b43d-d81b-4b6a-b650-680a0038c921,153,10,wrapping,paper,a,a,3,5/8/2023,19:31:48,3283
9224-d564b43d-d81b-4b6a-b650-680a0038c921,153,11,top,molar,a,a,4,5/8/2023,19:31:51,2659
9224-d564b43d-d81b-4b6a-b650-680a0038c921,153,12,butter,mouth,a,a,8,5/8/2023,19:31:57,5000
9224-d564b43d-d81b-4b6a-b650-680a0038c921,153,13,round,pumpkin,a,a,5,5/8/2023,19:32:01,3444
9224-d564b43d-d81b-4b6a-b650-680a0038c921,153,14,flop,flap,a,a,8,5/8/2023,19:32:05,3486
9224-d564b43d-d81b-4b6a-b650-680a0038c921,153,15,twin,deck,a,a,3,5/8/2023,19:32:10,4936
9224-d564b43d-d81b-4b6a-b650-680a0038c921,153,16,hand,drive,a,a,3,5/8/2023,19:32:14,4129
9224-d564b43d-d81b-4b6a-b650-680a0038c921,153,17,art,advisor,an,an,2,5/8/2023,19:32:17,2367
9224-d564b43d-d81b-4b6a-b650-680a0038c921,153,18,bean,ball,a,a,2,5/8/2023,19:32:21,2952
9224-d564b43d-d81b-4b6a-b650-680a0038c921,153,19,yellow,chicken,a,a,3,5/8/2023,19:32:27,6105
9224-d564b43d-d81b-4b6a-b650-680a0038c921,153,20,NA,NA,NA,NA,5,5/8/2023,19:32:29,1669
9224-d564b43d-d81b-4b6a-b650-680a0038c921,153,21,farm,shop,a,a,2,5/8/2023,19:32:39,9878
9224-d564b43d-d81b-4b6a-b650-680a0038c921,153,22,weenie,firefly,a,a,8,5/8/2023,19:32:42,2463
9224-d564b43d-d81b-4b6a-b650-680a0038c921,153,23,phone,line,a,a,3,5/8/2023,19:32:46,3386
9224-d564b43d-d81b-4b6a-b650-680a0038c921,153,24,yellow,lip,a,a,2,5/8/2023,19:32:48,1908
9224-d564b43d-d81b-4b6a-b650-680a0038c921,153,25,baby,bottle,a,a,5,5/8/2023,19:32:53,3975
9224-d564b43d-d81b-4b6a-b650-680a0038c921,153,26,marble,roll,a,a,8,5/8/2023,19:32:57,3834
9224-d564b43d-d81b-4b6a-b650-680a0038c921,153,27,giant,dump,a,a,3,5/8/2023,19:33:02,4221
9224-d564b43d-d81b-4b6a-b650-680a0038c921,153,28,car,boot,a,a,2,5/8/2023,19:33:06,4201
9224-d564b43d-d81b-4b6a-b650-680a0038c921,153,29,garlic,salt,NA,NA,3,5/8/2023,19:33:09,2806
9224-d564b43d-d81b-4b6a-b650-680a0038c921,153,30,red,ice,NA,NA,2,5/8/2023,19:33:12,2434
9224-d564b43d-d81b-4b6a-b650-680a0038c921,153,31,body,puppet,a,a,8,5/8/2023,19:33:17,4129
9224-d564b43d-d81b-4b6a-b650-680a0038c921,153,32,jelly,container,a,a,3,5/8/2023,19:33:20,2380
9224-d564b43d-d81b-4b6a-b650-680a0038c921,153,33,pink,honey,NA,NA,2,5/8/2023,19:33:22,2256
9224-d564b43d-d81b-4b6a-b650-680a0038c921,153,34,orange,plant,a,an,2,5/8/2023,19:33:25,2458
9224-d564b43d-d81b-4b6a-b650-680a0038c921,153,35,potty,sticker,a,a,2,5/8/2023,19:33:29,3869
8625-41572573-35fd-4a2e-a706-220b071b9084,72,0,bedroom,bathroom,a,a,3,5/8/2023,17:09:20,3835
8625-41572573-35fd-4a2e-a706-220b071b9084,72,1,sweet,drink,a,a,3,5/8/2023,17:09:23,2189
8625-41572573-35fd-4a2e-a706-220b071b9084,72,2,hot,egg,an,a,4,5/8/2023,17:09:25,1827
8625-41572573-35fd-4a2e-a706-220b071b9084,72,3,beach,token,a,a,2,5/8/2023,17:09:28,2490
8625-41572573-35fd-4a2e-a706-220b071b9084,72,4,brown,basket,a,a,3,5/8/2023,17:09:31,2911
8625-41572573-35fd-4a2e-a706-220b071b9084,72,5,candy,corn,a,a,3,5/8/2023,17:09:34,2578
8625-41572573-35fd-4a2e-a706-220b071b9084,72,6,smoky,circle,a,a,8,5/8/2023,17:09:37,2519
8625-41572573-35fd-4a2e-a706-220b071b9084,72,7,library,book,a,a,3,5/8/2023,17:09:39,1963
8625-41572573-35fd-4a2e-a706-220b071b9084,72,8,daddy,king,a,a,1,5/8/2023,17:09:42,2204
8625-41572573-35fd-4a2e-a706-220b071b9084,72,9,train,track,a,a,3,5/8/2023,17:09:44,1637
8625-41572573-35fd-4a2e-a706-220b071b9084,72,10,orange,wall,a,an,3,5/8/2023,17:09:46,1646
8625-41572573-35fd-4a2e-a706-220b071b9084,72,11,nylon,shirt,a,a,3,5/8/2023,17:09:49,2035
8625-41572573-35fd-4a2e-a706-220b071b9084,72,12,purple,pepperoni,NA,NA,1,5/8/2023,17:09:52,3058
8625-41572573-35fd-4a2e-a706-220b071b9084,72,13,muscle,tissue,a,a,3,5/8/2023,17:09:55,2474
8625-41572573-35fd-4a2e-a706-220b071b9084,72,14,kitty,kitty,a,a,8,5/8/2023,17:09:57,2086
8625-41572573-35fd-4a2e-a706-220b071b9084,72,15,NA,NA,NA,NA,5,5/8/2023,17:09:59,1493
8625-41572573-35fd-4a2e-a706-220b071b9084,72,16,outside,line,a,an,2,5/8/2023,17:10:02,2766
8625-41572573-35fd-4a2e-a706-220b071b9084,72,17,blind,mouse,a,a,3,5/8/2023,17:10:05,1973
8625-41572573-35fd-4a2e-a706-220b071b9084,72,18,coral,piece,a,a,3,5/8/2023,17:10:07,2236
8625-41572573-35fd-4a2e-a706-220b071b9084,72,19,throw,rock,a,a,2,5/8/2023,17:10:12,3678
8625-41572573-35fd-4a2e-a706-220b071b9084,72,20,coffee,tea,NA,NA,2,5/8/2023,17:10:14,2235
8625-41572573-35fd-4a2e-a706-220b071b9084,72,21,key,board,a,a,3,5/8/2023,17:10:17,2301
8625-41572573-35fd-4a2e-a706-220b071b9084,72,22,water,filter,a,a,3,5/8/2023,17:10:21,4111
8625-41572573-35fd-4a2e-a706-220b071b9084,72,23,manual,alloy,an,a,3,5/8/2023,17:10:24,1846
8625-41572573-35fd-4a2e-a706-220b071b9084,72,24,root,beer,a,a,3,5/8/2023,17:10:26,1978
8625-41572573-35fd-4a2e-a706-220b071b9084,72,25,turkey,chip,a,a,1,5/8/2023,17:10:29,2228
8625-41572573-35fd-4a2e-a706-220b071b9084,72,26,grocery,store,a,a,3,5/8/2023,17:10:31,2196
8625-41572573-35fd-4a2e-a706-220b071b9084,72,27,girl,water,NA,NA,8,5/8/2023,17:10:34,2498
8625-41572573-35fd-4a2e-a706-220b071b9084,72,28,back,seat,a,a,3,5/8/2023,17:10:37,1933
8625-41572573-35fd-4a2e-a706-220b071b9084,72,29,bacon,bone,a,a,1,5/8/2023,17:10:40,2961
8625-41572573-35fd-4a2e-a706-220b071b9084,72,30,rubber,rubber,NA,NA,8,5/8/2023,17:10:42,1976
8625-41572573-35fd-4a2e-a706-220b071b9084,72,31,lemon,skin,NA,NA,2,5/8/2023,17:10:46,3022
8625-41572573-35fd-4a2e-a706-220b071b9084,72,32,fly,ball,a,a,3,5/8/2023,17:10:49,2579
8625-41572573-35fd-4a2e-a706-220b071b9084,72,33,dragon,corn,a,a,1,5/8/2023,17:10:52,2367
8625-41572573-35fd-4a2e-a706-220b071b9084,72,34,purple,baby,a,a,2,5/8/2023,17:10:54,2040
8625-41572573-35fd-4a2e-a706-220b071b9084,72,35,plastic,piece,a,a,3,5/8/2023,17:10:56,1888
5675-c581211f-c54e-4fea-b0e7-72026acd32e7,112,0,elephant,parade,a,an,2,5/8/2023,21:17:04,3560
5675-c581211f-c54e-4fea-b0e7-72026acd32e7,112,1,purple,collar,a,a,2,5/8/2023,21:17:06,1747
5675-c581211f-c54e-4fea-b0e7-72026acd32e7,112,2,brown,shirt,a,a,3,5/8/2023,21:17:09,2086
5675-c581211f-c54e-4fea-b0e7-72026acd32e7,112,3,outside,lane,a,an,4,5/8/2023,21:17:12,2349
5675-c581211f-c54e-4fea-b0e7-72026acd32e7,112,4,elephant,ear,an,an,2,5/8/2023,21:17:14,2194
5675-c581211f-c54e-4fea-b0e7-72026acd32e7,112,5,paper,plate,a,a,3,5/8/2023,21:17:18,2863
5675-c581211f-c54e-4fea-b0e7-72026acd32e7,112,6,solar,shop,a,a,2,5/8/2023,21:17:20,2142
5675-c581211f-c54e-4fea-b0e7-72026acd32e7,112,7,fairy,note,a,a,2,5/8/2023,21:17:23,2088
5675-c581211f-c54e-4fea-b0e7-72026acd32e7,112,8,coat,hanger,a,a,4,5/8/2023,21:17:27,4323
5675-c581211f-c54e-4fea-b0e7-72026acd32e7,112,9,comb,brooch,a,a,2,5/8/2023,21:17:30,2356
5675-c581211f-c54e-4fea-b0e7-72026acd32e7,112,10,man,house,a,a,8,5/8/2023,21:17:33,2411
5675-c581211f-c54e-4fea-b0e7-72026acd32e7,112,11,shake,mustache,a,a,8,5/8/2023,21:17:36,2752
5675-c581211f-c54e-4fea-b0e7-72026acd32e7,112,12,penny,piece,a,a,3,5/8/2023,21:17:39,2979
5675-c581211f-c54e-4fea-b0e7-72026acd32e7,112,13,lighter,purple,NA,NA,4,5/8/2023,21:17:44,4458
5675-c581211f-c54e-4fea-b0e7-72026acd32e7,112,14,eye,eye,an,an,8,5/8/2023,21:17:47,1861
5675-c581211f-c54e-4fea-b0e7-72026acd32e7,112,15,metal,plate,a,a,2,5/8/2023,21:17:51,3968
5675-c581211f-c54e-4fea-b0e7-72026acd32e7,112,16,juicy,juicy,NA,NA,8,5/8/2023,21:17:53,1567
5675-c581211f-c54e-4fea-b0e7-72026acd32e7,112,17,country,mansion,a,a,4,5/8/2023,21:17:56,2426
5675-c581211f-c54e-4fea-b0e7-72026acd32e7,112,18,dolly,house,a,a,2,5/8/2023,21:17:58,2086
5675-c581211f-c54e-4fea-b0e7-72026acd32e7,112,19,NA,NA,NA,NA,5,5/8/2023,21:18:00,1526
5675-c581211f-c54e-4fea-b0e7-72026acd32e7,112,20,elephant,fly,a,an,2,5/8/2023,21:18:04,2833
5675-c581211f-c54e-4fea-b0e7-72026acd32e7,112,21,green,bird,a,a,2,5/8/2023,21:18:06,2485
5675-c581211f-c54e-4fea-b0e7-72026acd32e7,112,22,smoke,top,a,a,2,5/8/2023,21:18:10,3377
5675-c581211f-c54e-4fea-b0e7-72026acd32e7,112,23,red,squirrel,a,a,3,5/8/2023,21:18:13,2795
5675-c581211f-c54e-4fea-b0e7-72026acd32e7,112,24,candy,cane,a,a,2,5/8/2023,21:18:16,1980
5675-c581211f-c54e-4fea-b0e7-72026acd32e7,112,25,fat,man,a,a,4,5/8/2023,21:18:18,1988
5675-c581211f-c54e-4fea-b0e7-72026acd32e7,112,26,marble,fall,a,a,8,5/8/2023,21:18:21,2044
5675-c581211f-c54e-4fea-b0e7-72026acd32e7,112,27,sewing,machine,a,a,3,5/8/2023,21:18:24,2477
5675-c581211f-c54e-4fea-b0e7-72026acd32e7,112,28,tobacco,tin,a,a,3,5/8/2023,21:18:26,1934
5675-c581211f-c54e-4fea-b0e7-72026acd32e7,112,29,fuzzy,hair,NA,NA,4,5/8/2023,21:18:29,2963
5675-c581211f-c54e-4fea-b0e7-72026acd32e7,112,30,surf,surf,a,a,8,5/8/2023,21:21:43,193504
5675-c581211f-c54e-4fea-b0e7-72026acd32e7,112,31,green,man,a,a,1,5/8/2023,21:21:47,3222
5675-c581211f-c54e-4fea-b0e7-72026acd32e7,112,32,green,ear,an,a,1,5/8/2023,21:21:49,2149
5675-c581211f-c54e-4fea-b0e7-72026acd32e7,112,33,day,tooth,a,a,8,5/8/2023,21:21:52,2546
5675-c581211f-c54e-4fea-b0e7-72026acd32e7,112,34,ground,floor,a,a,5,5/8/2023,21:21:55,2158
5675-c581211f-c54e-4fea-b0e7-72026acd32e7,112,35,red,dress,a,a,3,5/8/2023,21:21:58,2611
6385-7a21e7d5-8f65-495e-a3e8-e238593d007d,172,0,stair,carpet,a,a,3,5/8/2023,19:39:36,113826
6385-7a21e7d5-8f65-495e-a3e8-e238593d007d,172,1,boy,stage,a,a,2,5/8/2023,19:39:39,2484
6385-7a21e7d5-8f65-495e-a3e8-e238593d007d,172,2,chicken,wing,a,a,3,5/8/2023,19:39:41,1898
6385-7a21e7d5-8f65-495e-a3e8-e238593d007d,172,3,dancing,shoe,a,a,3,5/8/2023,19:39:43,1520
6385-7a21e7d5-8f65-495e-a3e8-e238593d007d,172,4,yellow,helicopter,a,a,2,5/8/2023,19:39:45,2013
6385-7a21e7d5-8f65-495e-a3e8-e238593d007d,172,5,wet,ball,a,a,3,5/8/2023,19:39:47,1600
6385-7a21e7d5-8f65-495e-a3e8-e238593d007d,172,6,pink,oval,an,a,3,5/8/2023,19:39:49,1383
6385-7a21e7d5-8f65-495e-a3e8-e238593d007d,172,7,mommy,lion,a,a,3,5/8/2023,19:39:51,1277
6385-7a21e7d5-8f65-495e-a3e8-e238593d007d,172,8,green,guy,a,a,2,5/8/2023,19:39:54,2881
6385-7a21e7d5-8f65-495e-a3e8-e238593d007d,172,9,bank,note,a,a,3,5/8/2023,19:39:57,1970
6385-7a21e7d5-8f65-495e-a3e8-e238593d007d,172,10,mulberry,tree,a,a,3,5/8/2023,19:40:04,7011
6385-7a21e7d5-8f65-495e-a3e8-e238593d007d,172,11,orange,corner,a,an,3,5/8/2023,19:40:06,1425
6385-7a21e7d5-8f65-495e-a3e8-e238593d007d,172,12,dog,person,a,a,3,5/8/2023,19:40:08,1841
6385-7a21e7d5-8f65-495e-a3e8-e238593d007d,172,13,furry,tail,a,a,3,5/8/2023,19:40:10,1483
6385-7a21e7d5-8f65-495e-a3e8-e238593d007d,172,14,dead,one,a,a,3,5/8/2023,19:40:12,1429
6385-7a21e7d5-8f65-495e-a3e8-e238593d007d,172,15,red,crayon,a,a,3,5/8/2023,19:40:14,1294
6385-7a21e7d5-8f65-495e-a3e8-e238593d007d,172,16,bright,shirt,a,a,3,5/8/2023,19:40:16,1655
6385-7a21e7d5-8f65-495e-a3e8-e238593d007d,172,17,dark,eye,an,a,3,5/8/2023,19:40:17,1467
6385-7a21e7d5-8f65-495e-a3e8-e238593d007d,172,18,fish,puzzle,a,a,2,5/8/2023,19:40:20,1999
6385-7a21e7d5-8f65-495e-a3e8-e238593d007d,172,19,hot,shit,NA,NA,3,5/8/2023,19:40:22,2018
6385-7a21e7d5-8f65-495e-a3e8-e238593d007d,172,20,green,crayon,a,a,3,5/8/2023,19:40:24,1635
6385-7a21e7d5-8f65-495e-a3e8-e238593d007d,172,21,circus,train,a,a,2,5/8/2023,19:40:33,8562
6385-7a21e7d5-8f65-495e-a3e8-e238593d007d,172,22,loaf,pan,a,a,2,5/8/2023,19:40:37,2803
6385-7a21e7d5-8f65-495e-a3e8-e238593d007d,172,23,brown,hill,a,a,3,5/8/2023,19:40:38,1439
6385-7a21e7d5-8f65-495e-a3e8-e238593d007d,172,24,blond,boy,a,a,3,5/8/2023,19:40:40,1636
6385-7a21e7d5-8f65-495e-a3e8-e238593d007d,172,25,stone,letter,a,a,3,5/8/2023,19:40:43,2561
6385-7a21e7d5-8f65-495e-a3e8-e238593d007d,172,26,dirty,basement,a,a,3,5/8/2023,19:40:46,1761
6385-7a21e7d5-8f65-495e-a3e8-e238593d007d,172,27,NA,NA,NA,NA,5,5/8/2023,19:40:49,3084
6385-7a21e7d5-8f65-495e-a3e8-e238593d007d,172,28,burnt,cookie,a,a,3,5/8/2023,19:40:51,1670
6385-7a21e7d5-8f65-495e-a3e8-e238593d007d,172,29,star,sticker,a,a,3,5/8/2023,19:40:53,1686
6385-7a21e7d5-8f65-495e-a3e8-e238593d007d,172,30,bedroom,house,a,a,3,5/8/2023,19:40:55,1703
6385-7a21e7d5-8f65-495e-a3e8-e238593d007d,172,31,cloth,mum,a,a,2,5/8/2023,19:40:58,1922
6385-7a21e7d5-8f65-495e-a3e8-e238593d007d,172,32,pea,pod,a,a,3,5/8/2023,19:41:00,1472
6385-7a21e7d5-8f65-495e-a3e8-e238593d007d,172,33,cargo,car,a,a,3,5/8/2023,19:41:08,8015
6385-7a21e7d5-8f65-495e-a3e8-e238593d007d,172,34,clothes,furnishing,NA,NA,2,5/8/2023,19:41:11,2519
6385-7a21e7d5-8f65-495e-a3e8-e238593d007d,172,35,dish,washer,a,a,3,5/8/2023,19:41:13,1499
9190-fece82e5-3f38-487d-b092-b39810b59d92,57,0,square,lemon,a,a,1,5/8/2023,20:06:00,8481
9190-fece82e5-3f38-487d-b092-b39810b59d92,57,1,cut,apple,an,a,3,5/8/2023,20:06:06,5473
9190-fece82e5-3f38-487d-b092-b39810b59d92,57,2,tape,measure,a,a,4,5/8/2023,20:06:12,5883
9190-fece82e5-3f38-487d-b092-b39810b59d92,57,3,red,bin,a,a,2,5/8/2023,20:06:16,3611
9190-fece82e5-3f38-487d-b092-b39810b59d92,57,4,yellow,skull,a,a,2,5/8/2023,20:06:20,3773
9190-fece82e5-3f38-487d-b092-b39810b59d92,57,5,roof,roof,a,a,8,5/8/2023,20:06:24,2868
9190-fece82e5-3f38-487d-b092-b39810b59d92,57,6,thick,piece,a,a,3,5/8/2023,20:06:29,4741
9190-fece82e5-3f38-487d-b092-b39810b59d92,57,7,potato,pie,a,a,2,5/8/2023,20:06:34,4405
9190-fece82e5-3f38-487d-b092-b39810b59d92,57,8,explorer,guy,a,an,2,5/8/2023,20:06:38,4373
9190-fece82e5-3f38-487d-b092-b39810b59d92,57,9,red,coat,a,a,3,5/8/2023,20:06:43,3862
9190-fece82e5-3f38-487d-b092-b39810b59d92,57,10,tent,card,a,a,8,5/8/2023,20:06:48,5085
9190-fece82e5-3f38-487d-b092-b39810b59d92,57,11,plastic,toy,a,a,3,5/8/2023,20:06:52,3391
9190-fece82e5-3f38-487d-b092-b39810b59d92,57,12,quarry,tile,a,a,2,5/8/2023,20:06:57,4303
9190-fece82e5-3f38-487d-b092-b39810b59d92,57,13,puppet,stage,a,a,2,5/8/2023,20:07:01,3912
9190-fece82e5-3f38-487d-b092-b39810b59d92,57,14,octopus,car,a,an,1,5/8/2023,20:07:06,4329
9190-fece82e5-3f38-487d-b092-b39810b59d92,57,15,daddy,laundry,NA,NA,2,5/8/2023,20:07:13,6840
9190-fece82e5-3f38-487d-b092-b39810b59d92,57,16,thick,mud,NA,NA,5,5/8/2023,20:07:18,4984
9190-fece82e5-3f38-487d-b092-b39810b59d92,57,17,table,cloth,a,a,3,5/8/2023,20:07:23,3848
9190-fece82e5-3f38-487d-b092-b39810b59d92,57,18,baby,blanket,a,a,3,5/8/2023,20:07:26,3232
9190-fece82e5-3f38-487d-b092-b39810b59d92,57,19,square,face,a,a,2,5/8/2023,20:07:32,4848
9190-fece82e5-3f38-487d-b092-b39810b59d92,57,20,chalk,bucket,a,a,2,5/8/2023,20:07:36,4433
9190-fece82e5-3f38-487d-b092-b39810b59d92,57,21,NA,NA,NA,NA,5,5/8/2023,20:07:39,2073
9190-fece82e5-3f38-487d-b092-b39810b59d92,57,22,fruit,machine,a,a,2,5/8/2023,20:07:44,4433
9190-fece82e5-3f38-487d-b092-b39810b59d92,57,23,smooch,dance,a,a,2,5/8/2023,20:07:50,5811
9190-fece82e5-3f38-487d-b092-b39810b59d92,57,24,outside,house,a,an,6,5/8/2023,20:08:05,14779
9190-fece82e5-3f38-487d-b092-b39810b59d92,57,25,hair,cap,a,a,2,5/8/2023,20:08:09,3835
9190-fece82e5-3f38-487d-b092-b39810b59d92,57,26,purple,dog,a,a,1,5/8/2023,20:08:14,4339
9190-fece82e5-3f38-487d-b092-b39810b59d92,57,27,tooth,fairy,a,a,3,5/8/2023,20:08:22,7020
9190-fece82e5-3f38-487d-b092-b39810b59d92,57,28,throw,garbage,NA,NA,8,5/8/2023,20:08:25,3044
9190-fece82e5-3f38-487d-b092-b39810b59d92,57,29,broken,one,a,a,3,5/8/2023,20:08:31,5669
9190-fece82e5-3f38-487d-b092-b39810b59d92,57,30,wet,pants,NA,NA,3,5/8/2023,20:08:36,4469
9190-fece82e5-3f38-487d-b092-b39810b59d92,57,31,flat,side,a,a,6,5/8/2023,20:08:42,5572
9190-fece82e5-3f38-487d-b092-b39810b59d92,57,32,green,lawn,a,a,6,5/8/2023,20:08:48,5221
9190-fece82e5-3f38-487d-b092-b39810b59d92,57,33,salty,egg,an,a,3,5/8/2023,20:08:52,4293
9190-fece82e5-3f38-487d-b092-b39810b59d92,57,34,salty,wave,a,a,3,5/8/2023,20:08:57,4438
9190-fece82e5-3f38-487d-b092-b39810b59d92,57,35,peach,material,a,a,2,5/8/2023,20:09:02,4087
8706-945d27cf-f191-4c77-9e64-be0947cff001,144,0,thick,loaf,a,a,2,5/1/2023,18:57:09,2481
8706-945d27cf-f191-4c77-9e64-be0947cff001,144,1,fat,lady,a,a,3,5/1/2023,18:57:11,1596
8706-945d27cf-f191-4c77-9e64-be0947cff001,144,2,purse,purse,a,a,8,5/1/2023,18:57:13,1516
8706-945d27cf-f191-4c77-9e64-be0947cff001,144,3,letter,puzzle,a,a,2,5/1/2023,18:57:15,1787
8706-945d27cf-f191-4c77-9e64-be0947cff001,144,4,scratching,guy,a,a,8,5/1/2023,18:57:17,1540
8706-945d27cf-f191-4c77-9e64-be0947cff001,144,5,oatmeal,raisin,a,an,8,5/1/2023,18:57:20,1828
8706-945d27cf-f191-4c77-9e64-be0947cff001,144,6,motor,bridge,a,a,8,5/1/2023,18:57:22,1670
8706-945d27cf-f191-4c77-9e64-be0947cff001,144,7,chocolate,chip,a,a,3,5/1/2023,18:57:24,1468
8706-945d27cf-f191-4c77-9e64-be0947cff001,144,8,pink,tongue,a,a,5,5/1/2023,18:57:26,2044
8706-945d27cf-f191-4c77-9e64-be0947cff001,144,9,red,nose,a,a,2,5/1/2023,18:57:29,2652
8706-945d27cf-f191-4c77-9e64-be0947cff001,144,10,green,ball,a,a,3,5/1/2023,18:57:31,1373
8706-945d27cf-f191-4c77-9e64-be0947cff001,144,11,nut,juice,NA,NA,8,5/1/2023,18:57:33,1493
8706-945d27cf-f191-4c77-9e64-be0947cff001,144,12,round,sun,NA,NA,8,5/1/2023,18:57:35,1588
8706-945d27cf-f191-4c77-9e64-be0947cff001,144,13,couple,car,a,a,8,5/1/2023,18:57:37,1413
8706-945d27cf-f191-4c77-9e64-be0947cff001,144,14,hot,tub,a,a,5,5/1/2023,18:57:39,1766
8706-945d27cf-f191-4c77-9e64-be0947cff001,144,15,hot,book,a,a,8,5/1/2023,18:57:41,1661
8706-945d27cf-f191-4c77-9e64-be0947cff001,144,16,octopus,talon,a,an,8,5/1/2023,18:57:43,1453
8706-945d27cf-f191-4c77-9e64-be0947cff001,144,17,cash,book,a,a,8,5/1/2023,18:57:45,1524
8706-945d27cf-f191-4c77-9e64-be0947cff001,144,18,red,digger,a,a,8,5/1/2023,18:57:47,1340
8706-945d27cf-f191-4c77-9e64-be0947cff001,144,19,top,butter,NA,NA,8,5/1/2023,18:57:49,1989
8706-945d27cf-f191-4c77-9e64-be0947cff001,144,20,thick,pound,a,a,8,5/1/2023,18:57:51,1484
8706-945d27cf-f191-4c77-9e64-be0947cff001,144,21,gingerbread,recipe,a,a,3,5/1/2023,18:57:53,1748
8706-945d27cf-f191-4c77-9e64-be0947cff001,144,22,bright,boy,a,a,8,5/1/2023,18:57:58,4108
8706-945d27cf-f191-4c77-9e64-be0947cff001,144,23,drawing,table,a,a,3,5/1/2023,18:57:59,1499
8706-945d27cf-f191-4c77-9e64-be0947cff001,144,24,red,marker,a,a,2,5/1/2023,18:58:01,1555
8706-945d27cf-f191-4c77-9e64-be0947cff001,144,25,gas,pipe,a,a,3,5/1/2023,18:58:03,1435
8706-945d27cf-f191-4c77-9e64-be0947cff001,144,26,giant,present,a,a,3,5/1/2023,18:58:06,2012
8706-945d27cf-f191-4c77-9e64-be0947cff001,144,27,box,squirrel,a,a,8,5/1/2023,18:58:08,1636
8706-945d27cf-f191-4c77-9e64-be0947cff001,144,28,dark,forest,a,a,3,5/1/2023,18:58:10,1460
8706-945d27cf-f191-4c77-9e64-be0947cff001,144,29,metal,edge,an,a,8,5/1/2023,18:58:12,2172
8706-945d27cf-f191-4c77-9e64-be0947cff001,144,30,NA,NA,NA,NA,5,5/1/2023,18:58:15,1859
8706-945d27cf-f191-4c77-9e64-be0947cff001,144,31,purple,block,a,a,3,5/1/2023,18:58:16,1484
8706-945d27cf-f191-4c77-9e64-be0947cff001,144,32,orange,suit,a,an,3,5/1/2023,18:58:18,1421
8706-945d27cf-f191-4c77-9e64-be0947cff001,144,33,page,boy,a,a,8,5/1/2023,18:58:20,1548
8706-945d27cf-f191-4c77-9e64-be0947cff001,144,34,yellow,guitar,a,a,3,5/1/2023,18:58:22,1580
8706-945d27cf-f191-4c77-9e64-be0947cff001,144,35,shoe,room,a,a,2,5/1/2023,18:58:24,1755
9024-730cd5e3-a813-4450-b784-d1e54e08fdbe,134,0,grey,suite,a,a,3,5/1/2023,18:52:21,12151
9024-730cd5e3-a813-4450-b784-d1e54e08fdbe,134,1,chocolate,eclair,an,a,6,5/1/2023,18:52:26,4838
9024-730cd5e3-a813-4450-b784-d1e54e08fdbe,134,2,stamp,pad,a,a,5,5/1/2023,18:52:32,6080
9024-730cd5e3-a813-4450-b784-d1e54e08fdbe,134,3,bagel,dog,a,a,1,5/1/2023,18:52:36,3645
9024-730cd5e3-a813-4450-b784-d1e54e08fdbe,134,4,tree,frog,a,a,3,5/1/2023,18:52:42,5059
9024-730cd5e3-a813-4450-b784-d1e54e08fdbe,134,5,cranium,pad,a,a,8,5/1/2023,18:52:49,7027
9024-730cd5e3-a813-4450-b784-d1e54e08fdbe,134,6,bread,plum,a,a,8,5/1/2023,18:52:54,4208
9024-730cd5e3-a813-4450-b784-d1e54e08fdbe,134,7,sugar,bowl,a,a,5,5/1/2023,18:52:58,3353
9024-730cd5e3-a813-4450-b784-d1e54e08fdbe,134,8,moist,soil,NA,NA,5,5/1/2023,18:53:01,2429
9024-730cd5e3-a813-4450-b784-d1e54e08fdbe,134,9,child,card,a,a,8,5/1/2023,18:53:04,2912
9024-730cd5e3-a813-4450-b784-d1e54e08fdbe,134,10,kitchen,floor,a,a,5,5/1/2023,18:53:10,6041
9024-730cd5e3-a813-4450-b784-d1e54e08fdbe,134,11,jelly,doughnut,a,a,5,5/1/2023,18:53:14,3176
9024-730cd5e3-a813-4450-b784-d1e54e08fdbe,134,12,NA,NA,NA,NA,5,5/1/2023,18:53:17,2175
9024-730cd5e3-a813-4450-b784-d1e54e08fdbe,134,13,one,brother,a,a,8,5/1/2023,18:53:26,8512
9024-730cd5e3-a813-4450-b784-d1e54e08fdbe,134,14,hot,bath,a,a,6,5/1/2023,18:53:28,2487
9024-730cd5e3-a813-4450-b784-d1e54e08fdbe,134,15,oatmeal,mommy,a,an,8,5/1/2023,18:53:31,2518
9024-730cd5e3-a813-4450-b784-d1e54e08fdbe,134,16,darts,duster,a,a,8,5/1/2023,18:53:35,2995
9024-730cd5e3-a813-4450-b784-d1e54e08fdbe,134,17,water,skate,a,a,8,5/1/2023,18:53:40,4794
9024-730cd5e3-a813-4450-b784-d1e54e08fdbe,134,18,pink,square,a,a,3,5/1/2023,18:53:44,3105
9024-730cd5e3-a813-4450-b784-d1e54e08fdbe,134,19,pull,pull,a,a,8,5/1/2023,18:53:47,2745
9024-730cd5e3-a813-4450-b784-d1e54e08fdbe,134,20,yellow,game,a,a,8,5/1/2023,18:53:49,2287
9024-730cd5e3-a813-4450-b784-d1e54e08fdbe,134,21,hot,fry,a,a,6,5/1/2023,18:53:55,5346
9024-730cd5e3-a813-4450-b784-d1e54e08fdbe,134,22,pony,home,a,a,8,5/1/2023,18:53:58,2144
9024-730cd5e3-a813-4450-b784-d1e54e08fdbe,134,23,color,sand,NA,NA,3,5/1/2023,18:54:03,4510
9024-730cd5e3-a813-4450-b784-d1e54e08fdbe,134,24,rock,music,NA,NA,5,5/1/2023,18:54:06,2875
9024-730cd5e3-a813-4450-b784-d1e54e08fdbe,134,25,red,mouth,a,a,8,5/1/2023,18:54:08,1697
9024-730cd5e3-a813-4450-b784-d1e54e08fdbe,134,26,flower,stem,a,a,3,5/1/2023,18:54:11,2881
9024-730cd5e3-a813-4450-b784-d1e54e08fdbe,134,27,yellow,ring,a,a,3,5/1/2023,18:54:16,4010
9024-730cd5e3-a813-4450-b784-d1e54e08fdbe,134,28,dragon,picture,a,a,8,5/1/2023,18:54:18,1775
9024-730cd5e3-a813-4450-b784-d1e54e08fdbe,134,29,bottom,door,a,a,8,5/1/2023,18:54:20,1817
9024-730cd5e3-a813-4450-b784-d1e54e08fdbe,134,30,north,king,a,a,2,5/1/2023,18:54:24,3635
9024-730cd5e3-a813-4450-b784-d1e54e08fdbe,134,31,baby,room,a,a,3,5/1/2023,18:54:28,2898
9024-730cd5e3-a813-4450-b784-d1e54e08fdbe,134,32,money,side,a,a,8,5/1/2023,18:54:30,1786
9024-730cd5e3-a813-4450-b784-d1e54e08fdbe,134,33,pirate,sword,a,a,5,5/1/2023,18:54:33,2618
9024-730cd5e3-a813-4450-b784-d1e54e08fdbe,134,34,pencil,sharpener,a,a,6,5/1/2023,18:54:36,2739
9024-730cd5e3-a813-4450-b784-d1e54e08fdbe,134,35,daddy,boy,a,a,8,5/1/2023,18:54:40,3562
4583-185f44ab-bc66-4431-8ec0-931fcd03d0d7,146,0,oval,face,a,an,2,5/1/2023,17:41:29,54262
4583-185f44ab-bc66-4431-8ec0-931fcd03d0d7,146,1,door,grill,a,a,2,5/1/2023,17:41:31,1801
4583-185f44ab-bc66-4431-8ec0-931fcd03d0d7,146,2,people,kid,a,a,2,5/1/2023,17:41:35,2700
4583-185f44ab-bc66-4431-8ec0-931fcd03d0d7,146,3,navy,shorts,NA,NA,3,5/1/2023,17:41:37,1751
4583-185f44ab-bc66-4431-8ec0-931fcd03d0d7,146,4,children,adult,an,a,1,5/1/2023,17:41:40,2472
4583-185f44ab-bc66-4431-8ec0-931fcd03d0d7,146,5,building,downtown,a,a,3,5/1/2023,17:41:42,1876
4583-185f44ab-bc66-4431-8ec0-931fcd03d0d7,146,6,diamond,one,a,a,2,5/1/2023,17:41:45,2781
4583-185f44ab-bc66-4431-8ec0-931fcd03d0d7,146,7,town,dump,a,a,3,5/1/2023,17:41:48,2511
4583-185f44ab-bc66-4431-8ec0-931fcd03d0d7,146,8,yellow,barrel,a,a,2,5/1/2023,17:41:50,2038
4583-185f44ab-bc66-4431-8ec0-931fcd03d0d7,146,9,stall,light,a,a,2,5/1/2023,17:41:54,3211
4583-185f44ab-bc66-4431-8ec0-931fcd03d0d7,146,10,NA,NA,NA,NA,5,5/1/2023,17:41:56,1628
4583-185f44ab-bc66-4431-8ec0-931fcd03d0d7,146,11,elephant,ride,a,an,3,5/1/2023,17:41:58,1866
4583-185f44ab-bc66-4431-8ec0-931fcd03d0d7,146,12,pink,rake,a,a,2,5/1/2023,17:42:01,1835
4583-185f44ab-bc66-4431-8ec0-931fcd03d0d7,146,13,sheet,side,a,a,2,5/1/2023,17:42:03,1980
4583-185f44ab-bc66-4431-8ec0-931fcd03d0d7,146,14,breast,lump,a,a,2,5/1/2023,17:42:07,3339
4583-185f44ab-bc66-4431-8ec0-931fcd03d0d7,146,15,red,house,a,a,3,5/1/2023,17:42:09,1997
4583-185f44ab-bc66-4431-8ec0-931fcd03d0d7,146,16,bottom,piece,a,a,3,5/1/2023,17:42:11,1754
4583-185f44ab-bc66-4431-8ec0-931fcd03d0d7,146,17,hair,witch,a,a,1,5/1/2023,17:42:15,3381
4583-185f44ab-bc66-4431-8ec0-931fcd03d0d7,146,18,dead,stone,a,a,8,5/1/2023,17:42:20,4026
4583-185f44ab-bc66-4431-8ec0-931fcd03d0d7,146,19,tooth,paste,a,a,3,5/1/2023,17:42:22,2091
4583-185f44ab-bc66-4431-8ec0-931fcd03d0d7,146,20,carpet,shampoo,NA,NA,3,5/1/2023,17:42:24,1556
4583-185f44ab-bc66-4431-8ec0-931fcd03d0d7,146,21,grease,mark,a,a,2,5/1/2023,17:42:26,1932
4583-185f44ab-bc66-4431-8ec0-931fcd03d0d7,146,22,orange,frosting,NA,NA,2,5/1/2023,17:42:29,1693
4583-185f44ab-bc66-4431-8ec0-931fcd03d0d7,146,23,camera,eye,an,a,2,5/1/2023,17:42:31,1968
4583-185f44ab-bc66-4431-8ec0-931fcd03d0d7,146,24,hot,lava,NA,NA,5,5/1/2023,17:42:34,2469
4583-185f44ab-bc66-4431-8ec0-931fcd03d0d7,146,25,butterfly,catcher,a,a,2,5/1/2023,17:42:36,2197
4583-185f44ab-bc66-4431-8ec0-931fcd03d0d7,146,26,metal,bath,a,a,2,5/1/2023,17:42:40,2945
4583-185f44ab-bc66-4431-8ec0-931fcd03d0d7,146,27,draw,letter,a,a,2,5/1/2023,17:42:42,1411
4583-185f44ab-bc66-4431-8ec0-931fcd03d0d7,146,28,rubber,band,a,a,2,5/1/2023,17:42:44,1928
4583-185f44ab-bc66-4431-8ec0-931fcd03d0d7,146,29,leaf,cake,a,a,2,5/1/2023,17:42:46,1554
4583-185f44ab-bc66-4431-8ec0-931fcd03d0d7,146,30,green,bug,a,a,3,5/1/2023,17:42:49,2461
4583-185f44ab-bc66-4431-8ec0-931fcd03d0d7,146,31,trash,bear,a,a,2,5/1/2023,17:42:51,1931
4583-185f44ab-bc66-4431-8ec0-931fcd03d0d7,146,32,green,airship,an,a,2,5/1/2023,17:42:53,1681
4583-185f44ab-bc66-4431-8ec0-931fcd03d0d7,146,33,green,ring,a,a,3,5/1/2023,17:42:55,1589
4583-185f44ab-bc66-4431-8ec0-931fcd03d0d7,146,34,wooden,board,a,a,3,5/1/2023,17:42:57,1569
4583-185f44ab-bc66-4431-8ec0-931fcd03d0d7,146,35,lacing,piece,a,a,2,5/1/2023,17:43:01,3595
5078-da9590a7-71e1-4a2d-beef-3633ca935490,11,0,rabbit,hole,a,a,3,5/1/2023,17:16:24,3051
5078-da9590a7-71e1-4a2d-beef-3633ca935490,11,1,broken,ride,a,a,3,5/1/2023,17:16:27,3334
5078-da9590a7-71e1-4a2d-beef-3633ca935490,11,2,purple,raindrop,a,a,1,5/1/2023,17:16:30,2267
5078-da9590a7-71e1-4a2d-beef-3633ca935490,11,3,mitt,honey,NA,NA,1,5/1/2023,17:16:32,1811
5078-da9590a7-71e1-4a2d-beef-3633ca935490,11,4,hot,tray,a,a,4,5/1/2023,17:16:35,2568
5078-da9590a7-71e1-4a2d-beef-3633ca935490,11,5,letter,block,a,a,3,5/1/2023,17:16:38,1937
5078-da9590a7-71e1-4a2d-beef-3633ca935490,11,6,plastic,ball,a,a,3,5/1/2023,17:16:41,2849
5078-da9590a7-71e1-4a2d-beef-3633ca935490,11,7,fly,swatter,a,a,6,5/1/2023,17:16:44,2598
5078-da9590a7-71e1-4a2d-beef-3633ca935490,11,8,toy,lizard,a,a,3,5/1/2023,17:16:46,2066
5078-da9590a7-71e1-4a2d-beef-3633ca935490,11,9,walk,hotel,a,a,1,5/1/2023,17:16:49,2204
5078-da9590a7-71e1-4a2d-beef-3633ca935490,11,10,daddy,crown,a,a,1,5/1/2023,17:16:51,1692
5078-da9590a7-71e1-4a2d-beef-3633ca935490,11,11,green,marble,a,a,3,5/1/2023,17:16:54,2050
5078-da9590a7-71e1-4a2d-beef-3633ca935490,11,12,wet,kiss,a,a,6,5/1/2023,17:16:57,3287
5078-da9590a7-71e1-4a2d-beef-3633ca935490,11,13,lunch,box,a,a,3,5/1/2023,17:17:00,1910
5078-da9590a7-71e1-4a2d-beef-3633ca935490,11,14,sweet,tooth,a,a,3,5/1/2023,17:17:03,3213
5078-da9590a7-71e1-4a2d-beef-3633ca935490,11,15,bottom,bunk,a,a,4,5/1/2023,17:17:06,2511
5078-da9590a7-71e1-4a2d-beef-3633ca935490,11,16,mommy,sneeze,a,a,3,5/1/2023,17:17:09,2542
5078-da9590a7-71e1-4a2d-beef-3633ca935490,11,17,dinosaur,foot,a,a,2,5/1/2023,17:17:12,2155
5078-da9590a7-71e1-4a2d-beef-3633ca935490,11,18,elephant,trunk,a,an,3,5/1/2023,17:17:14,2281
5078-da9590a7-71e1-4a2d-beef-3633ca935490,11,19,pink,kitty,a,a,2,5/1/2023,17:17:17,2464
5078-da9590a7-71e1-4a2d-beef-3633ca935490,11,20,apple,butter,NA,NA,3,5/1/2023,17:17:20,2085
5078-da9590a7-71e1-4a2d-beef-3633ca935490,11,21,NA,NA,NA,NA,5,5/1/2023,17:17:23,2515
5078-da9590a7-71e1-4a2d-beef-3633ca935490,11,22,green,flower,a,a,3,5/1/2023,17:17:25,2163
5078-da9590a7-71e1-4a2d-beef-3633ca935490,11,23,bed,room,a,a,3,5/1/2023,17:17:28,2592
5078-da9590a7-71e1-4a2d-beef-3633ca935490,11,24,building,block,a,a,3,5/1/2023,17:17:31,2094
5078-da9590a7-71e1-4a2d-beef-3633ca935490,11,25,ball,tent,a,a,1,5/1/2023,17:17:36,4684
5078-da9590a7-71e1-4a2d-beef-3633ca935490,11,26,daddy,hand,a,a,3,5/1/2023,17:17:39,2540
5078-da9590a7-71e1-4a2d-beef-3633ca935490,11,27,pat,pat,a,a,1,5/1/2023,17:17:42,2320
5078-da9590a7-71e1-4a2d-beef-3633ca935490,11,28,yellow,foot,a,a,2,5/1/2023,17:17:44,2176
5078-da9590a7-71e1-4a2d-beef-3633ca935490,11,29,street,lighting,NA,NA,5,5/1/2023,17:17:47,2556
5078-da9590a7-71e1-4a2d-beef-3633ca935490,11,30,yellow,stripe,a,a,5,5/1/2023,17:17:51,2974
5078-da9590a7-71e1-4a2d-beef-3633ca935490,11,31,bear,float,a,a,2,5/1/2023,17:17:54,2940
5078-da9590a7-71e1-4a2d-beef-3633ca935490,11,32,dead,lip,a,a,3,5/1/2023,17:17:58,3439
5078-da9590a7-71e1-4a2d-beef-3633ca935490,11,33,pink,chair,a,a,3,5/1/2023,17:18:00,2236
5078-da9590a7-71e1-4a2d-beef-3633ca935490,11,34,grocery,cart,a,a,4,5/1/2023,17:18:04,3347
